
time,ax,ay,az,Latitude,Longitude,Speed (m/s),
0.055664,0.0000,0.0000,0.0000,0.00000000,0.00000000,0.00000000,
0.055847,0.0000,0.0000,0.0000,55.75204727,48.74302978,0.00000000,
0.073221,0.0000,0.0000,0.0000,55.75204727,48.74302978,0.00000000,
0.091520,0.0000,0.0000,0.0000,55.75204727,48.74302978,0.00000000,
0.109364,0.0000,0.0000,0.0000,55.75204727,48.74302978,0.00000000,
0.110353,0.0000,0.0000,0.0000,55.75204727,48.74302978,0.00000000,
0.130495,0.0000,0.0000,0.0000,55.75204727,48.74302978,0.00000000,
0.131187,0.0000,0.0000,0.0000,55.75204727,48.74302978,0.00000000,
0.148895,0.0000,0.0000,0.0000,55.75204727,48.74302978,0.00000000,
0.168411,0.0000,0.0000,0.0000,55.75204727,48.74302978,0.00000000,
0.168949,0.0000,0.0000,0.0000,55.75204727,48.74302978,0.00000000,
0.187716,0.0000,0.0000,0.0000,55.75204727,48.74302978,0.00000000,
0.188638,-0.0342,0.0164,-0.0005,55.75204727,48.74302978,0.00000000,
0.207174,-0.0342,0.0164,-0.0005,55.75204727,48.74302978,0.00000000,
0.227564,-0.0342,0.0164,-0.0005,55.75204727,48.74302978,0.00000000,
0.247862,-0.0342,0.0164,-0.0005,55.75204727,48.74302978,0.00000000,
0.249960,-0.0342,0.0164,-0.0005,55.75204727,48.74302978,0.00000000,
0.267547,0.1107,0.0148,-0.0651,55.75204727,48.74302978,0.00000000,
0.268179,0.1107,0.0148,-0.0651,55.75204727,48.74302978,0.00000000,
0.287206,0.1107,0.0148,-0.0651,55.75204727,48.74302978,0.00000000,
0.307574,0.1107,0.0148,-0.0651,55.75204727,48.74302978,0.00000000,
0.308763,0.1107,0.0148,-0.0651,55.75204727,48.74302978,0.00000000,
0.326757,0.1107,0.0148,-0.0651,55.75204727,48.74302978,0.00000000,
0.327317,0.0870,-0.0083,0.0798,55.75204727,48.74302978,0.00000000,
0.355802,0.0870,-0.0083,0.0798,55.75204727,48.74302978,0.00000000,
0.377242,0.0870,-0.0083,0.0798,55.75204727,48.74302978,0.00000000,
0.378115,0.0870,-0.0083,0.0798,55.75204727,48.74302978,0.00000000,
0.395865,0.0870,-0.0083,0.0798,55.75204727,48.74302978,0.00000000,
0.396374,-0.1784,0.0613,-0.0113,55.75204727,48.74302978,0.00000000,
0.415656,-0.1784,0.0613,-0.0113,55.75204727,48.74302978,0.00000000,
0.435368,-0.1784,0.0613,-0.0113,55.75204727,48.74302978,0.00000000,
0.455722,-0.1784,0.0613,-0.0113,55.75204727,48.74302978,0.00000000,
0.456280,-0.1784,0.0613,-0.0113,55.75204727,48.74302978,0.00000000,
0.475277,-0.1784,0.0613,-0.0113,55.75204727,48.74302978,0.00000000,
0.476609,0.1485,0.0760,-0.0947,55.75204727,48.74302978,0.00000000,
0.494940,0.1485,0.0760,-0.0947,55.75204727,48.74302978,0.00000000,
0.515609,0.1485,0.0760,-0.0947,55.75204727,48.74302978,0.00000000,
0.516616,0.1485,0.0760,-0.0947,55.75204727,48.74302978,0.00000000,
0.534957,0.1485,0.0760,-0.0947,55.75204727,48.74302978,0.00000000,
0.535386,0.0153,0.0527,0.2683,55.75204727,48.74302978,0.00000000,
0.553010,0.0153,0.0527,0.2683,55.75204727,48.74302978,0.00000000,
0.574075,0.0153,0.0527,0.2683,55.75204727,48.74302978,0.00000000,
0.592882,0.0153,0.0527,0.2683,55.75204727,48.74302978,0.00000000,
0.593937,0.0153,0.0527,0.2683,55.75204727,48.74302978,0.00000000,
0.613647,0.1792,-0.2310,-0.0771,55.75204727,48.74302978,0.00000000,
0.614558,0.1792,-0.2310,-0.0771,55.75204727,48.74302978,0.00000000,
0.632123,0.1792,-0.2310,-0.0771,55.75204727,48.74302978,0.00000000,
0.653017,0.1792,-0.2310,-0.0771,55.75204727,48.74302978,0.00000000,
0.654217,0.1792,-0.2310,-0.0771,55.75204727,48.74302978,0.00000000,
0.672117,0.0203,0.1328,0.2908,55.75204727,48.74302978,0.00000000,
0.674609,0.0203,0.1328,0.2908,55.75204727,48.74302978,0.00000000,
0.691954,0.0203,0.1328,0.2908,55.75204727,48.74302978,0.00000000,
0.711400,0.0203,0.1328,0.2908,55.75204727,48.74302978,0.00000000,
0.732095,0.0203,0.1328,0.2908,55.75204727,48.74302978,0.00000000,
0.733211,0.0203,0.1328,0.2908,55.75204727,48.74302978,0.00000000,
0.752539,0.0203,0.1328,0.2908,55.75204727,48.74302978,0.00000000,
0.753947,-0.1107,0.2249,-0.0226,55.75204727,48.74302978,0.00000000,
0.770691,-0.1107,0.2249,-0.0226,55.75204727,48.74302978,0.00000000,
0.790226,-0.1107,0.2249,-0.0226,55.75204727,48.74302978,0.00000000,
0.791057,-0.1107,0.2249,-0.0226,55.75204727,48.74302978,0.00000000,
0.810317,-0.1812,-0.0750,-0.2483,55.75204727,48.74302978,0.00000000,
0.811147,-0.1812,-0.0750,-0.2483,55.75204727,48.74302978,0.00000000,
0.830634,-0.1812,-0.0750,-0.2483,55.75204727,48.74302978,0.00000000,
0.843849,-0.1812,-0.0750,-0.2483,55.75204727,48.74302978,0.00000000,
0.859171,-0.1812,-0.0750,-0.2483,55.75204727,48.74302978,0.00000000,
0.859867,-0.1812,-0.0750,-0.2483,55.75204727,48.74302978,0.00000000,
0.879841,-0.1812,-0.0750,-0.2483,55.75204727,48.74302978,0.00000000,
0.880643,-0.4630,0.3039,-0.3335,55.75204258,48.74307118,0.00000000,
0.899966,-0.4630,0.3039,-0.3335,55.75204258,48.74307118,0.00000000,
0.918369,-0.4630,0.3039,-0.3335,55.75204258,48.74307118,0.00000000,
0.938328,-0.4630,0.3039,-0.3335,55.75204258,48.74307118,0.00000000,
0.939148,-0.4630,0.3039,-0.3335,55.75204258,48.74307118,0.00000000,
0.958930,-0.4313,0.5591,-0.1927,55.75204258,48.74307118,0.00000000,
0.959730,-0.4313,0.5591,-0.1927,55.75204258,48.74307118,0.00000000,
0.977437,-0.4313,0.5591,-0.1927,55.75204258,48.74307118,0.00000000,
0.998251,-0.4313,0.5591,-0.1927,55.75204258,48.74307118,0.00000000,
0.998812,-0.4313,0.5591,-0.1927,55.75204258,48.74307118,0.00000000,
1.017412,-0.4313,0.5591,-0.1927,55.75204258,48.74307118,0.00000000,
1.018938,-0.4107,0.7060,0.0406,55.75204258,48.74307118,0.00000000,
1.038652,-0.4107,0.7060,0.0406,55.75204258,48.74307118,0.00000000,
1.058090,-0.4107,0.7060,0.0406,55.75204258,48.74307118,0.00000000,
1.076515,-0.4107,0.7060,0.0406,55.75204258,48.74307118,0.00000000,
1.077281,-0.4107,0.7060,0.0406,55.75204258,48.74307118,0.00000000,
1.094327,-0.6218,0.7998,-0.3405,55.75204258,48.74307118,0.00000000,
1.106422,-0.6218,0.7998,-0.3405,55.75204258,48.74307118,0.00000000,
1.126791,-0.6218,0.7998,-0.3405,55.75204258,48.74307118,0.00000000,
1.147726,-0.6218,0.7998,-0.3405,55.75204258,48.74307118,0.00000000,
1.149152,-0.6218,0.7998,-0.3405,55.75204258,48.74307118,0.00000000,
1.167126,-0.6218,0.7998,-0.3405,55.75204258,48.74307118,0.00000000,
1.168037,-0.4052,0.0474,0.3785,55.75204258,48.74307118,0.00000000,
1.186419,-0.4052,0.0474,0.3785,55.75204258,48.74307118,0.00000000,
1.207313,-0.4052,0.0474,0.3785,55.75204258,48.74307118,0.00000000,
1.207866,-0.4052,0.0474,0.3785,55.75204258,48.74307118,0.00000000,
1.225842,-0.4052,0.0474,0.3785,55.75204258,48.74307118,0.00000000,
1.226682,0.6879,0.3235,-0.4595,55.75204258,48.74307118,0.00000000,
1.245086,0.6879,0.3235,-0.4595,55.75204258,48.74307118,0.00000000,
1.264796,0.6879,0.3235,-0.4595,55.75204258,48.74307118,0.00000000,
1.286280,0.6879,0.3235,-0.4595,55.75204258,48.74307118,0.00000000,
1.287268,0.6879,0.3235,-0.4595,55.75204258,48.74307118,0.00000000,
1.304818,0.6879,0.3235,-0.4595,55.75204258,48.74307118,0.00000000,
1.306312,1.2155,-0.0924,-0.1284,55.75204258,48.74307118,0.00000000,
1.324556,1.2155,-0.0924,-0.1284,55.75204258,48.74307118,0.00000000,
1.345224,1.2155,-0.0924,-0.1284,55.75204258,48.74307118,0.00000000,
1.345896,1.2155,-0.0924,-0.1284,55.75204258,48.74307118,0.00000000,
1.363844,1.2155,-0.0924,-0.1284,55.75204258,48.74307118,0.00000000,
1.364526,0.6355,-0.2826,0.7153,55.75204258,48.74307118,0.00000000,
1.384660,0.6355,-0.2826,0.7153,55.75204258,48.74307118,0.00000000,
1.403944,0.6355,-0.2826,0.7153,55.75204258,48.74307118,0.00000000,
1.423921,0.6355,-0.2826,0.7153,55.75204258,48.74307118,0.00000000,
1.424260,0.6355,-0.2826,0.7153,55.75204258,48.74307118,0.00000000,
1.443377,0.6355,-0.2826,0.7153,55.75204258,48.74307118,0.00000000,
1.443915,0.5647,0.7994,-0.7710,55.75204258,48.74307118,0.00000000,
1.462491,0.5647,0.7994,-0.7710,55.75204258,48.74307118,0.00000000,
1.482355,0.5647,0.7994,-0.7710,55.75204258,48.74307118,0.00000000,
1.483445,0.5647,0.7994,-0.7710,55.75204258,48.74307118,0.00000000,
1.501724,0.5647,0.7994,-0.7710,55.75204258,48.74307118,0.00000000,
1.502292,0.4941,0.8753,-0.9526,55.75204258,48.74307118,0.00000000,
1.521437,0.4941,0.8753,-0.9526,55.75204258,48.74307118,0.00000000,
1.542023,0.4941,0.8753,-0.9526,55.75204258,48.74307118,0.00000000,
1.561088,0.4941,0.8753,-0.9526,55.75204258,48.74307118,0.00000000,
1.562007,0.4941,0.8753,-0.9526,55.75204258,48.74307118,0.00000000,
1.580324,0.5390,0.3860,-0.1231,55.75204258,48.74307118,0.00000000,
1.581864,0.5390,0.3860,-0.1231,55.75204258,48.74307118,0.00000000,
1.594500,0.5390,0.3860,-0.1231,55.75204258,48.74307118,0.00000000,
1.610176,0.5390,0.3860,-0.1231,55.75204258,48.74307118,0.00000000,
1.631536,0.5390,0.3860,-0.1231,55.75204258,48.74307118,0.00000000,
1.632350,0.5390,0.3860,-0.1231,55.75204258,48.74307118,0.00000000,
1.650255,0.5390,0.3860,-0.1231,55.75204258,48.74307118,0.00000000,
1.651182,0.2668,0.7309,-0.4696,55.75204258,48.74307118,0.00000000,
1.671218,0.2668,0.7309,-0.4696,55.75204258,48.74307118,0.00000000,
1.689976,0.2668,0.7309,-0.4696,55.75204258,48.74307118,0.00000000,
1.690752,0.2668,0.7309,-0.4696,55.75204258,48.74307118,0.00000000,
1.709829,0.2668,0.7309,-0.4696,55.75204258,48.74307118,0.00000000,
1.710819,0.1741,1.1783,0.1382,55.75204258,48.74307118,0.00000000,
1.729393,0.1741,1.1783,0.1382,55.75204258,48.74307118,0.00000000,
1.749644,0.1741,1.1783,0.1382,55.75204258,48.74307118,0.00000000,
1.771192,0.1741,1.1783,0.1382,55.75204258,48.74307118,0.00000000,
1.772580,0.1741,1.1783,0.1382,55.75204258,48.74307118,0.00000000,
1.787343,0.1090,0.9702,1.8798,55.75204258,48.74307118,0.00000000,
1.798199,0.1090,0.9702,1.8798,55.75204258,48.74307118,0.00000000,
1.817404,0.1090,0.9702,1.8798,55.75204258,48.74307118,0.00000000,
1.838117,0.1090,0.9702,1.8798,55.75204258,48.74307118,0.00000000,
1.839284,0.1090,0.9702,1.8798,55.75204258,48.74307118,0.00000000,
1.858188,0.1090,0.9702,1.8798,55.75204258,48.74307118,0.00000000,
1.858939,-0.2818,-0.5207,3.0966,55.75204258,48.74307118,0.00000000,
1.877040,-0.2818,-0.5207,3.0966,55.75204258,48.74307118,0.00000000,
1.896534,-0.2818,-0.5207,3.0966,55.75203162,48.74319569,0.44999999,
1.898005,-0.2818,-0.5207,3.0966,55.75203162,48.74319569,0.44999999,
1.916081,-1.0587,-1.4738,1.9815,55.75203162,48.74319569,0.44999999,
1.916512,-1.0587,-1.4738,1.9815,55.75203162,48.74319569,0.44999999,
1.938279,-1.0587,-1.4738,1.9815,55.75203162,48.74319569,0.44999999,
1.956033,-1.0587,-1.4738,1.9815,55.75203162,48.74319569,0.44999999,
1.976808,-1.0587,-1.4738,1.9815,55.75203162,48.74319569,0.44999999,
1.977390,-1.0587,-1.4738,1.9815,55.75203162,48.74319569,0.44999999,
1.996037,-0.9519,-0.5455,-2.2722,55.75203162,48.74319569,0.44999999,
1.997647,-0.9519,-0.5455,-2.2722,55.75203162,48.74319569,0.44999999,
2.015089,-0.9519,-0.5455,-2.2722,55.75203162,48.74319569,0.44999999,
2.035374,-0.9519,-0.5455,-2.2722,55.75203162,48.74319569,0.44999999,
2.036339,-0.9519,-0.5455,-2.2722,55.75203162,48.74319569,0.44999999,
2.055986,-0.9519,-0.5455,-2.2722,55.75203162,48.74319569,0.44999999,
2.057304,-0.6886,-0.4413,-2.3972,55.75203162,48.74319569,0.44999999,
2.075125,-0.6886,-0.4413,-2.3972,55.75203162,48.74319569,0.44999999,
2.096108,-0.6886,-0.4413,-2.3972,55.75203162,48.74319569,0.44999999,
2.114910,-0.6886,-0.4413,-2.3972,55.75203162,48.74319569,0.44999999,
2.116213,-0.6886,-0.4413,-2.3972,55.75203162,48.74319569,0.44999999,
2.134696,-0.6886,-0.4413,-2.3972,55.75203162,48.74319569,0.44999999,
2.135241,-0.3683,0.2066,-3.0506,55.75203162,48.74319569,0.44999999,
2.154037,-0.3683,0.2066,-3.0506,55.75203162,48.74319569,0.44999999,
2.172774,-0.3683,0.2066,-3.0506,55.75203162,48.74319569,0.44999999,
2.173283,-0.3683,0.2066,-3.0506,55.75203162,48.74319569,0.44999999,
2.194074,-0.3683,0.2066,-3.0506,55.75203162,48.74319569,0.44999999,
2.194974,-0.1463,0.4202,-2.3696,55.75203162,48.74319569,0.44999999,
2.213886,-0.1463,0.4202,-2.3696,55.75203162,48.74319569,0.44999999,
2.233353,-0.1463,0.4202,-2.3696,55.75203162,48.74319569,0.44999999,
2.252607,-0.1463,0.4202,-2.3696,55.75203162,48.74319569,0.44999999,
2.253529,-0.1463,0.4202,-2.3696,55.75203162,48.74319569,0.44999999,
2.271473,0.0504,0.7983,0.1529,55.75203162,48.74319569,0.44999999,
2.272351,0.0504,0.7983,0.1529,55.75203162,48.74319569,0.44999999,
2.291626,0.0504,0.7983,0.1529,55.75203162,48.74319569,0.44999999,
2.311253,0.0504,0.7983,0.1529,55.75203162,48.74319569,0.44999999,
2.311928,0.0504,0.7983,0.1529,55.75203162,48.74319569,0.44999999,
2.330922,0.0504,0.7983,0.1529,55.75203162,48.74319569,0.44999999,
2.331641,0.2948,0.5611,3.9796,55.75203162,48.74319569,0.44999999,
2.345468,0.2948,0.5611,3.9796,55.75203162,48.74319569,0.44999999,
2.361424,0.2948,0.5611,3.9796,55.75203162,48.74319569,0.44999999,
2.380972,0.2948,0.5611,3.9796,55.75203162,48.74319569,0.44999999,
2.381497,0.2948,0.5611,3.9796,55.75203162,48.74319569,0.44999999,
2.400660,0.2946,0.0332,5.7768,55.75203162,48.74319569,0.44999999,
2.401178,0.2946,0.0332,5.7768,55.75203162,48.74319569,0.44999999,
2.419851,0.2946,0.0332,5.7768,55.75203162,48.74319569,0.44999999,
2.440922,0.2946,0.0332,5.7768,55.75203162,48.74319569,0.44999999,
2.460451,0.2946,0.0332,5.7768,55.75203162,48.74319569,0.44999999,
2.460826,0.2946,0.0332,5.7768,55.75203162,48.74319569,0.44999999,
2.480058,1.4414,-2.4383,3.3392,55.75203162,48.74319569,0.44999999,
2.480622,1.4414,-2.4383,3.3392,55.75203162,48.74319569,0.44999999,
2.499290,1.4414,-2.4383,3.3392,55.75203162,48.74319569,0.44999999,
2.519828,1.4414,-2.4383,3.3392,55.75203162,48.74319569,0.44999999,
2.520365,1.4414,-2.4383,3.3392,55.75203162,48.74319569,0.44999999,
2.539634,1.4414,-2.4383,3.3392,55.75203162,48.74319569,0.44999999,
2.540284,1.3244,-1.7254,-2.0523,55.75203162,48.74319569,0.44999999,
2.558376,1.3244,-1.7254,-2.0523,55.75203162,48.74319569,0.44999999,
2.578629,1.3244,-1.7254,-2.0523,55.75203162,48.74319569,0.44999999,
2.595264,1.3244,-1.7254,-2.0523,55.75203162,48.74319569,0.44999999,
2.609235,-0.1681,-1.2878,-3.0883,55.75203162,48.74319569,0.44999999,
2.611337,-0.1681,-1.2878,-3.0883,55.75203162,48.74319569,0.44999999,
2.628811,-0.1681,-1.2878,-3.0883,55.75203162,48.74319569,0.44999999,
2.649042,-0.1681,-1.2878,-3.0883,55.75203162,48.74319569,0.44999999,
2.668103,-0.1681,-1.2878,-3.0883,55.75203162,48.74319569,0.44999999,
2.669500,-0.1681,-1.2878,-3.0883,55.75203162,48.74319569,0.44999999,
2.687188,-0.1681,-1.2878,-3.0883,55.75203162,48.74319569,0.44999999,
2.687926,0.0995,-0.2673,-5.9737,55.75203162,48.74319569,0.44999999,
2.707022,0.0995,-0.2673,-5.9737,55.75203162,48.74319569,0.44999999,
2.726270,0.0995,-0.2673,-5.9737,55.75203162,48.74319569,0.44999999,
2.726874,0.0995,-0.2673,-5.9737,55.75203162,48.74319569,0.44999999,
2.747144,0.0995,-0.2673,-5.9737,55.75203162,48.74319569,0.44999999,
2.747989,0.6755,0.2583,-4.5753,55.75203162,48.74319569,0.44999999,
2.766252,0.6755,0.2583,-4.5753,55.75203162,48.74319569,0.44999999,
2.785914,0.6755,0.2583,-4.5753,55.75203162,48.74319569,0.44999999,
2.807002,0.6755,0.2583,-4.5753,55.75203162,48.74319569,0.44999999,
2.807582,0.6755,0.2583,-4.5753,55.75203162,48.74319569,0.44999999,
2.826384,0.6755,0.2583,-4.5753,55.75203162,48.74319569,0.44999999,
2.827339,0.0311,0.8512,0.6575,55.75203162,48.74319569,0.44999999,
2.848489,0.0311,0.8512,0.6575,55.75203162,48.74319569,0.44999999,
2.864706,0.0311,0.8512,0.6575,55.75203162,48.74319569,0.44999999,
2.864962,0.0311,0.8512,0.6575,55.75202158,48.74320959,1.59000003,
2.883996,0.0311,0.8512,0.6575,55.75202158,48.74320959,1.59000003,
2.885014,-0.2473,0.2511,5.5088,55.75202158,48.74320959,1.59000003,
2.905740,-0.2473,0.2511,5.5088,55.75202158,48.74320959,1.59000003,
2.925163,-0.2473,0.2511,5.5088,55.75202158,48.74320959,1.59000003,
2.944119,-0.2473,0.2511,5.5088,55.75202158,48.74320959,1.59000003,
2.944558,-0.2473,0.2511,5.5088,55.75202158,48.74320959,1.59000003,
2.964508,-1.1134,1.8199,4.5667,55.75202158,48.74320959,1.59000003,
2.965030,-1.1134,1.8199,4.5667,55.75202158,48.74320959,1.59000003,
2.983096,-1.1134,1.8199,4.5667,55.75202158,48.74320959,1.59000003,
3.003168,-1.1134,1.8199,4.5667,55.75202158,48.74320959,1.59000003,
3.003701,-1.1134,1.8199,4.5667,55.75202158,48.74320959,1.59000003,
3.023133,-1.1134,1.8199,4.5667,55.75202158,48.74320959,1.59000003,
3.024426,-1.1218,-2.2567,4.3877,55.75202158,48.74320959,1.59000003,
3.043168,-1.1218,-2.2567,4.3877,55.75202158,48.74320959,1.59000003,
3.063591,-1.1218,-2.2567,4.3877,55.75202158,48.74320959,1.59000003,
3.082142,-1.1218,-2.2567,4.3877,55.75202158,48.74320959,1.59000003,
3.082706,-1.1218,-2.2567,4.3877,55.75202158,48.74320959,1.59000003,
3.095670,-1.1218,-2.2567,4.3877,55.75202158,48.74320959,1.59000003,
3.096346,-0.5766,-1.3041,-1.9443,55.75202158,48.74320959,1.59000003,
3.112052,-0.5766,-1.3041,-1.9443,55.75202158,48.74320959,1.59000003,
3.132770,-0.5766,-1.3041,-1.9443,55.75202158,48.74320959,1.59000003,
3.152376,-0.5766,-1.3041,-1.9443,55.75202158,48.74320959,1.59000003,
3.152852,-0.5766,-1.3041,-1.9443,55.75202158,48.74320959,1.59000003,
3.171175,-0.5766,-1.3041,-1.9443,55.75202158,48.74320959,1.59000003,
3.172170,0.2942,-0.5955,-4.3535,55.75202158,48.74320959,1.59000003,
3.192245,0.2942,-0.5955,-4.3535,55.75202158,48.74320959,1.59000003,
3.210550,0.2942,-0.5955,-4.3535,55.75202158,48.74320959,1.59000003,
3.211072,0.2942,-0.5955,-4.3535,55.75202158,48.74320959,1.59000003,
3.232179,0.8335,-0.7672,-4.1678,55.75202158,48.74320959,1.59000003,
3.234392,0.8335,-0.7672,-4.1678,55.75202158,48.74320959,1.59000003,
3.250029,0.8335,-0.7672,-4.1678,55.75202158,48.74320959,1.59000003,
3.269814,0.8335,-0.7672,-4.1678,55.75202158,48.74320959,1.59000003,
3.290544,0.8335,-0.7672,-4.1678,55.75202158,48.74320959,1.59000003,
3.291157,0.8335,-0.7672,-4.1678,55.75202158,48.74320959,1.59000003,
3.311148,0.8335,-0.7672,-4.1678,55.75202158,48.74320959,1.59000003,
3.311777,-0.0049,0.4109,-2.7394,55.75202158,48.74320959,1.59000003,
3.328621,-0.0049,0.4109,-2.7394,55.75202158,48.74320959,1.59000003,
3.359857,-0.0049,0.4109,-2.7394,55.75202158,48.74320959,1.59000003,
3.360994,-0.0049,0.4109,-2.7394,55.75202158,48.74320959,1.59000003,
3.381117,-0.0049,0.4109,-2.7394,55.75202158,48.74320959,1.59000003,
3.382530,-0.5474,0.8692,0.7584,55.75202158,48.74320959,1.59000003,
3.398453,-0.5474,0.8692,0.7584,55.75202158,48.74320959,1.59000003,
3.418619,-0.5474,0.8692,0.7584,55.75202158,48.74320959,1.59000003,
3.419545,-0.5474,0.8692,0.7584,55.75202158,48.74320959,1.59000003,
3.438938,-0.5474,0.8692,0.7584,55.75202158,48.74320959,1.59000003,
3.440241,-0.6247,0.0648,5.5890,55.75202158,48.74320959,1.59000003,
3.458557,-0.6247,0.0648,5.5890,55.75202158,48.74320959,1.59000003,
3.477315,-0.6247,0.0648,5.5890,55.75202158,48.74320959,1.59000003,
3.497493,-0.6247,0.0648,5.5890,55.75202158,48.74320959,1.59000003,
3.499967,-0.6247,0.0648,5.5890,55.75202158,48.74320959,1.59000003,
3.516308,-0.6247,0.0648,5.5890,55.75202158,48.74320959,1.59000003,
3.517388,0.0979,1.2439,3.9401,55.75202158,48.74320959,1.59000003,
3.537259,0.0979,1.2439,3.9401,55.75202158,48.74320959,1.59000003,
3.555773,0.0979,1.2439,3.9401,55.75202158,48.74320959,1.59000003,
3.556607,0.0979,1.2439,3.9401,55.75202158,48.74320959,1.59000003,
3.575764,0.0979,1.2439,3.9401,55.75202158,48.74320959,1.59000003,
3.576909,0.7469,-1.2159,0.7045,55.75202158,48.74320959,1.59000003,
3.596963,0.7469,-1.2159,0.7045,55.75202158,48.74320959,1.59000003,
3.605790,0.7469,-1.2159,0.7045,55.75202158,48.74320959,1.59000003,
3.626966,0.7469,-1.2159,0.7045,55.75202158,48.74320959,1.59000003,
3.628820,0.7469,-1.2159,0.7045,55.75202158,48.74320959,1.59000003,
3.646201,0.7469,-1.2159,0.7045,55.75202158,48.74320959,1.59000003,
3.647864,0.0725,-1.2781,-2.0759,55.75202158,48.74320959,1.59000003,
3.668443,0.0725,-1.2781,-2.0759,55.75202158,48.74320959,1.59000003,
3.684494,0.0725,-1.2781,-2.0759,55.75202158,48.74320959,1.59000003,
3.704608,0.0725,-1.2781,-2.0759,55.75202158,48.74320959,1.59000003,
3.705076,0.0725,-1.2781,-2.0759,55.75202158,48.74320959,1.59000003,
3.724951,0.0725,-1.2781,-2.0759,55.75202158,48.74320959,1.59000003,
3.726964,-1.2887,-0.6273,-2.7828,55.75202158,48.74320959,1.59000003,
3.743427,-1.2887,-0.6273,-2.7828,55.75202158,48.74320959,1.59000003,
3.764283,-1.2887,-0.6273,-2.7828,55.75202158,48.74320959,1.59000003,
3.765110,-1.2887,-0.6273,-2.7828,55.75202158,48.74320959,1.59000003,
3.784885,-1.2887,-0.6273,-2.7828,55.75202158,48.74320959,1.59000003,
3.785495,0.0100,0.1727,-3.7786,55.75202158,48.74320959,1.59000003,
3.802824,0.0100,0.1727,-3.7786,55.75202158,48.74320959,1.59000003,
3.822749,0.0100,0.1727,-3.7786,55.75202158,48.74320959,1.59000003,
3.847904,0.0100,0.1727,-3.7786,55.75202158,48.74320959,1.59000003,
3.848758,0.0100,0.1727,-3.7786,55.75202158,48.74320959,1.59000003,
3.864759,0.0100,0.1727,-3.7786,55.75202158,48.74320959,1.59000003,
3.865206,0.5802,1.0669,-1.7514,55.75200614,48.74332590,1.63000000,
3.883701,0.5802,1.0669,-1.7514,55.75200614,48.74332590,1.63000000,
3.901950,0.5802,1.0669,-1.7514,55.75200614,48.74332590,1.63000000,
3.904013,0.5802,1.0669,-1.7514,55.75200614,48.74332590,1.63000000,
3.922580,0.5802,1.0669,-1.7514,55.75200614,48.74332590,1.63000000,
3.923410,-0.0083,0.5719,2.1247,55.75200614,48.74332590,1.63000000,
3.941253,-0.0083,0.5719,2.1247,55.75200614,48.74332590,1.63000000,
3.961854,-0.0083,0.5719,2.1247,55.75200614,48.74332590,1.63000000,
3.982224,-0.0083,0.5719,2.1247,55.75200614,48.74332590,1.63000000,
3.984149,-0.0083,0.5719,2.1247,55.75200614,48.74332590,1.63000000,
4.000706,-0.0083,0.5719,2.1247,55.75200614,48.74332590,1.63000000,
4.001250,-0.1806,0.5021,4.2800,55.75200614,48.74332590,1.63000000,
4.021140,-0.1806,0.5021,4.2800,55.75200614,48.74332590,1.63000000,
4.040563,-0.1806,0.5021,4.2800,55.75200614,48.74332590,1.63000000,
4.042589,-0.1806,0.5021,4.2800,55.75200614,48.74332590,1.63000000,
4.060604,-0.1806,0.5021,4.2800,55.75200614,48.74332590,1.63000000,
4.061426,-0.7319,0.0172,2.0566,55.75200614,48.74332590,1.63000000,
4.078930,-0.7319,0.0172,2.0566,55.75200614,48.74332590,1.63000000,
4.109287,-0.7319,0.0172,2.0566,55.75200614,48.74332590,1.63000000,
4.111646,-0.7319,0.0172,2.0566,55.75200614,48.74332590,1.63000000,
4.128955,-0.7319,0.0172,2.0566,55.75200614,48.74332590,1.63000000,
4.130660,-0.4350,-2.3333,1.4567,55.75200614,48.74332590,1.63000000,
4.149145,-0.4350,-2.3333,1.4567,55.75200614,48.74332590,1.63000000,
4.169040,-0.4350,-2.3333,1.4567,55.75200614,48.74332590,1.63000000,
4.187820,-0.4350,-2.3333,1.4567,55.75200614,48.74332590,1.63000000,
4.188786,-0.4350,-2.3333,1.4567,55.75200614,48.74332590,1.63000000,
4.209131,0.5557,-0.1197,-2.0555,55.75200614,48.74332590,1.63000000,
4.210648,0.5557,-0.1197,-2.0555,55.75200614,48.74332590,1.63000000,
4.228816,0.5557,-0.1197,-2.0555,55.75200614,48.74332590,1.63000000,
4.247799,0.5557,-0.1197,-2.0555,55.75200614,48.74332590,1.63000000,
4.248772,0.5557,-0.1197,-2.0555,55.75200614,48.74332590,1.63000000,
4.266773,0.5557,-0.1197,-2.0555,55.75200614,48.74332590,1.63000000,
4.267906,0.8191,0.4738,-4.2310,55.75200614,48.74332590,1.63000000,
4.287873,0.8191,0.4738,-4.2310,55.75200614,48.74332590,1.63000000,
4.307027,0.8191,0.4738,-4.2310,55.75200614,48.74332590,1.63000000,
4.326363,0.8191,0.4738,-4.2310,55.75200614,48.74332590,1.63000000,
4.327180,0.8191,0.4738,-4.2310,55.75200614,48.74332590,1.63000000,
4.345372,0.8191,0.4738,-4.2310,55.75200614,48.74332590,1.63000000,
4.346815,0.8201,0.2334,-3.0595,55.75200614,48.74332590,1.63000000,
4.355985,0.8201,0.2334,-3.0595,55.75200614,48.74332590,1.63000000,
4.375667,0.8201,0.2334,-3.0595,55.75200614,48.74332590,1.63000000,
4.395080,0.8201,0.2334,-3.0595,55.75200614,48.74332590,1.63000000,
4.396239,0.8201,0.2334,-3.0595,55.75200614,48.74332590,1.63000000,
4.415774,-0.6132,1.5638,0.6460,55.75200614,48.74332590,1.63000000,
4.417347,-0.6132,1.5638,0.6460,55.75200614,48.74332590,1.63000000,
4.434865,-0.6132,1.5638,0.6460,55.75200614,48.74332590,1.63000000,
4.455419,-0.6132,1.5638,0.6460,55.75200614,48.74332590,1.63000000,
4.456350,-0.6132,1.5638,0.6460,55.75200614,48.74332590,1.63000000,
4.474986,-0.6592,-0.0194,6.3156,55.75200614,48.74332590,1.63000000,
4.477396,-0.6592,-0.0194,6.3156,55.75200614,48.74332590,1.63000000,
4.493992,-0.6592,-0.0194,6.3156,55.75200614,48.74332590,1.63000000,
4.514123,-0.6592,-0.0194,6.3156,55.75200614,48.74332590,1.63000000,
4.534413,-0.6592,-0.0194,6.3156,55.75200614,48.74332590,1.63000000,
4.535878,-0.6592,-0.0194,6.3156,55.75200614,48.74332590,1.63000000,
4.553225,-0.6592,-0.0194,6.3156,55.75200614,48.74332590,1.63000000,
4.554113,-0.0011,1.3357,2.3088,55.75200614,48.74332590,1.63000000,
4.574575,-0.0011,1.3357,2.3088,55.75200614,48.74332590,1.63000000,
4.593043,-0.0011,1.3357,2.3088,55.75200614,48.74332590,1.63000000,
4.594077,-0.0011,1.3357,2.3088,55.75200614,48.74332590,1.63000000,
4.611908,-0.0011,1.3357,2.3088,55.75200614,48.74332590,1.63000000,
4.612773,0.9763,-1.6565,1.1153,55.75200614,48.74332590,1.63000000,
4.632460,0.9763,-1.6565,1.1153,55.75200614,48.74332590,1.63000000,
4.651760,0.9763,-1.6565,1.1153,55.75200614,48.74332590,1.63000000,
4.672583,0.9763,-1.6565,1.1153,55.75200614,48.74332590,1.63000000,
4.674045,0.9763,-1.6565,1.1153,55.75200614,48.74332590,1.63000000,
4.691562,0.9763,-1.6565,1.1153,55.75200614,48.74332590,1.63000000,
4.692320,1.1989,-1.1848,-1.3884,55.75200614,48.74332590,1.63000000,
4.711285,1.1989,-1.1848,-1.3884,55.75200614,48.74332590,1.63000000,
4.732328,1.1989,-1.1848,-1.3884,55.75200614,48.74332590,1.63000000,
4.733252,1.1989,-1.1848,-1.3884,55.75200614,48.74332590,1.63000000,
4.750886,1.1989,-1.1848,-1.3884,55.75200614,48.74332590,1.63000000,
4.751401,-1.1621,-0.0016,-2.2355,55.75200614,48.74332590,1.63000000,
4.770761,-1.1621,-0.0016,-2.2355,55.75200614,48.74332590,1.63000000,
4.789934,-1.1621,-0.0016,-2.2355,55.75200614,48.74332590,1.63000000,
4.809875,-1.1621,-0.0016,-2.2355,55.75200614,48.74332590,1.63000000,
4.811182,-1.1621,-0.0016,-2.2355,55.75200614,48.74332590,1.63000000,
4.834441,-0.4274,-0.2118,-4.1848,55.75200614,48.74332590,1.63000000,
4.835778,-0.4274,-0.2118,-4.1848,55.75200614,48.74332590,1.63000000,
4.849805,-0.4274,-0.2118,-4.1848,55.75200614,48.74332590,1.63000000,
4.869503,-0.4274,-0.2118,-4.1848,55.75200614,48.74332590,1.63000000,
4.869935,-0.4274,-0.2118,-4.1848,55.75199547,48.74339054,1.52999997,
4.888174,-0.4274,-0.2118,-4.1848,55.75199547,48.74339054,1.52999997,
4.888989,0.9726,0.1084,-1.9675,55.75199547,48.74339054,1.52999997,
4.908452,0.9726,0.1084,-1.9675,55.75199547,48.74339054,1.52999997,
4.927969,0.9726,0.1084,-1.9675,55.75199547,48.74339054,1.52999997,
4.948341,0.9726,0.1084,-1.9675,55.75199547,48.74339054,1.52999997,
4.950232,0.9726,0.1084,-1.9675,55.75199547,48.74339054,1.52999997,
4.967420,0.9726,0.1084,-1.9675,55.75199547,48.74339054,1.52999997,
4.967833,1.2319,-0.0053,1.0192,55.75199547,48.74339054,1.52999997,
4.987479,1.2319,-0.0053,1.0192,55.75199547,48.74339054,1.52999997,
5.007732,1.2319,-0.0053,1.0192,55.75199547,48.74339054,1.52999997,
5.009061,1.2319,-0.0053,1.0192,55.75199547,48.74339054,1.52999997,
5.027491,1.2319,-0.0053,1.0192,55.75199547,48.74339054,1.52999997,
5.028107,0.1105,0.6866,1.9421,55.75199547,48.74339054,1.52999997,
5.046270,0.1105,0.6866,1.9421,55.75199547,48.74339054,1.52999997,
5.067173,0.1105,0.6866,1.9421,55.75199547,48.74339054,1.52999997,
5.078179,0.1105,0.6866,1.9421,55.75199547,48.74339054,1.52999997,
5.096137,0.1105,0.6866,1.9421,55.75199547,48.74339054,1.52999997,
5.097110,0.0211,0.9034,1.1850,55.75199547,48.74339054,1.52999997,
5.117062,0.0211,0.9034,1.1850,55.75199547,48.74339054,1.52999997,
5.136917,0.0211,0.9034,1.1850,55.75199547,48.74339054,1.52999997,
5.156188,0.0211,0.9034,1.1850,55.75199547,48.74339054,1.52999997,
5.156723,0.0211,0.9034,1.1850,55.75199547,48.74339054,1.52999997,
5.175127,0.0211,0.9034,1.1850,55.75199547,48.74339054,1.52999997,
5.176092,-1.7210,-1.1253,4.0256,55.75199547,48.74339054,1.52999997,
5.196484,-1.7210,-1.1253,4.0256,55.75199547,48.74339054,1.52999997,
5.214513,-1.7210,-1.1253,4.0256,55.75199547,48.74339054,1.52999997,
5.215692,-1.7210,-1.1253,4.0256,55.75199547,48.74339054,1.52999997,
5.234114,-1.0423,-0.6443,0.4800,55.75199547,48.74339054,1.52999997,
5.234760,-1.0423,-0.6443,0.4800,55.75199547,48.74339054,1.52999997,
5.254317,-1.0423,-0.6443,0.4800,55.75199547,48.74339054,1.52999997,
5.273796,-1.0423,-0.6443,0.4800,55.75199547,48.74339054,1.52999997,
5.294142,-1.0423,-0.6443,0.4800,55.75199547,48.74339054,1.52999997,
5.294724,-1.0423,-0.6443,0.4800,55.75199547,48.74339054,1.52999997,
5.314606,-1.0423,-0.6443,0.4800,55.75199547,48.74339054,1.52999997,
5.316125,0.7964,-0.4000,-3.6071,55.75199547,48.74339054,1.52999997,
5.330400,0.7964,-0.4000,-3.6071,55.75199547,48.74339054,1.52999997,
5.342584,0.7964,-0.4000,-3.6071,55.75199547,48.74339054,1.52999997,
5.363546,0.7964,-0.4000,-3.6071,55.75199547,48.74339054,1.52999997,
5.365341,0.7964,-0.4000,-3.6071,55.75199547,48.74339054,1.52999997,
5.383894,0.7964,-0.4000,-3.6071,55.75199547,48.74339054,1.52999997,
5.384713,0.6946,0.2602,-3.6058,55.75199547,48.74339054,1.52999997,
5.402954,0.6946,0.2602,-3.6058,55.75199547,48.74339054,1.52999997,
5.422635,0.6946,0.2602,-3.6058,55.75199547,48.74339054,1.52999997,
5.423666,0.6946,0.2602,-3.6058,55.75199547,48.74339054,1.52999997,
5.443726,0.6946,0.2602,-3.6058,55.75199547,48.74339054,1.52999997,
5.444465,0.5497,0.9948,-1.0749,55.75199547,48.74339054,1.52999997,
5.461149,0.5497,0.9948,-1.0749,55.75199547,48.74339054,1.52999997,
5.481965,0.5497,0.9948,-1.0749,55.75199547,48.74339054,1.52999997,
5.502763,0.5497,0.9948,-1.0749,55.75199547,48.74339054,1.52999997,
5.503502,0.5497,0.9948,-1.0749,55.75199547,48.74339054,1.52999997,
5.520959,0.5497,0.9948,-1.0749,55.75199547,48.74339054,1.52999997,
5.521489,0.1683,-0.0281,3.6191,55.75199547,48.74339054,1.52999997,
5.540679,0.1683,-0.0281,3.6191,55.75199547,48.74339054,1.52999997,
5.561289,0.1683,-0.0281,3.6191,55.75199547,48.74339054,1.52999997,
5.562460,0.1683,-0.0281,3.6191,55.75199547,48.74339054,1.52999997,
5.590490,0.4138,0.9864,2.8046,55.75199547,48.74339054,1.52999997,
5.592531,0.4138,0.9864,2.8046,55.75199547,48.74339054,1.52999997,
5.611012,0.4138,0.9864,2.8046,55.75199547,48.74339054,1.52999997,
5.629394,0.4138,0.9864,2.8046,55.75199547,48.74339054,1.52999997,
5.630705,0.4138,0.9864,2.8046,55.75199547,48.74339054,1.52999997,
5.649059,-0.0325,-0.2331,2.2268,55.75199547,48.74339054,1.52999997,
5.650922,-0.0325,-0.2331,2.2268,55.75199547,48.74339054,1.52999997,
5.669391,-0.0325,-0.2331,2.2268,55.75199547,48.74339054,1.52999997,
5.689047,-0.0325,-0.2331,2.2268,55.75199547,48.74339054,1.52999997,
5.709168,-0.0325,-0.2331,2.2268,55.75199547,48.74339054,1.52999997,
5.710233,-0.0325,-0.2331,2.2268,55.75199547,48.74339054,1.52999997,
5.729962,-0.0325,-0.2331,2.2268,55.75199547,48.74339054,1.52999997,
5.730917,0.9550,-1.2864,0.0495,55.75199547,48.74339054,1.52999997,
5.747637,0.9550,-1.2864,0.0495,55.75199547,48.74339054,1.52999997,
5.767878,0.9550,-1.2864,0.0495,55.75199547,48.74339054,1.52999997,
5.769162,0.9550,-1.2864,0.0495,55.75199547,48.74339054,1.52999997,
5.788789,0.9550,-1.2864,0.0495,55.75199547,48.74339054,1.52999997,
5.789789,-0.7991,-0.2960,-1.7941,55.75199547,48.74339054,1.52999997,
5.806932,-0.7991,-0.2960,-1.7941,55.75199547,48.74339054,1.52999997,
5.830532,-0.7991,-0.2960,-1.7941,55.75199547,48.74339054,1.52999997,
5.846677,-0.7991,-0.2960,-1.7941,55.75199547,48.74339054,1.52999997,
5.847244,-0.7991,-0.2960,-1.7941,55.75199547,48.74339054,1.52999997,
5.868593,-0.2767,-0.1738,-3.0728,55.75199547,48.74339054,1.52999997,
5.870861,-0.2767,-0.1738,-3.0728,55.75199547,48.74339054,1.52999997,
5.888151,-0.2767,-0.1738,-3.0728,55.75199547,48.74339054,1.52999997,
5.905992,-0.2767,-0.1738,-3.0728,55.75198441,48.74341225,1.52999997,
5.906711,-0.2767,-0.1738,-3.0728,55.75198441,48.74341225,1.52999997,
5.927132,-0.2767,-0.1738,-3.0728,55.75198441,48.74341225,1.52999997,
5.928850,0.4402,-0.0700,-3.1070,55.75198441,48.74341225,1.52999997,
5.946824,0.4402,-0.0700,-3.1070,55.75198441,48.74341225,1.52999997,
5.965109,0.4402,-0.0700,-3.1070,55.75198441,48.74341225,1.52999997,
5.984913,0.4402,-0.0700,-3.1070,55.75198441,48.74341225,1.52999997,
5.985525,0.4402,-0.0700,-3.1070,55.75198441,48.74341225,1.52999997,
6.004653,-0.0251,0.8228,-1.6235,55.75198441,48.74341225,1.52999997,
6.005361,-0.0251,0.8228,-1.6235,55.75198441,48.74341225,1.52999997,
6.025956,-0.0251,0.8228,-1.6235,55.75198441,48.74341225,1.52999997,
6.045410,-0.0251,0.8228,-1.6235,55.75198441,48.74341225,1.52999997,
6.046422,-0.0251,0.8228,-1.6235,55.75198441,48.74341225,1.52999997,
6.065478,-0.0628,1.2009,1.0504,55.75198441,48.74341225,1.52999997,
6.066893,-0.0628,1.2009,1.0504,55.75198441,48.74341225,1.52999997,
6.079377,-0.0628,1.2009,1.0504,55.75198441,48.74341225,1.52999997,
6.093802,-0.0628,1.2009,1.0504,55.75198441,48.74341225,1.52999997,
6.112680,-0.0628,1.2009,1.0504,55.75198441,48.74341225,1.52999997,
6.113507,-0.0628,1.2009,1.0504,55.75198441,48.74341225,1.52999997,
6.132195,-0.0628,1.2009,1.0504,55.75198441,48.74341225,1.52999997,
6.132959,0.0417,0.6284,4.7719,55.75198441,48.74341225,1.52999997,
6.152961,0.0417,0.6284,4.7719,55.75198441,48.74341225,1.52999997,
6.172599,0.0417,0.6284,4.7719,55.75198441,48.74341225,1.52999997,
6.192579,0.0417,0.6284,4.7719,55.75198441,48.74341225,1.52999997,
6.193896,0.0417,0.6284,4.7719,55.75198441,48.74341225,1.52999997,
6.213018,0.0417,0.6284,4.7719,55.75198441,48.74341225,1.52999997,
6.214514,0.3772,-1.4348,4.3640,55.75198441,48.74341225,1.52999997,
6.231325,0.3772,-1.4348,4.3640,55.75198441,48.74341225,1.52999997,
6.251646,0.3772,-1.4348,4.3640,55.75198441,48.74341225,1.52999997,
6.252780,0.3772,-1.4348,4.3640,55.75198441,48.74341225,1.52999997,
6.272882,-0.5680,-0.9664,0.4728,55.75198441,48.74341225,1.52999997,
6.276604,-0.5680,-0.9664,0.4728,55.75198441,48.74341225,1.52999997,
6.292373,-0.5680,-0.9664,0.4728,55.75198441,48.74341225,1.52999997,
6.313340,-0.5680,-0.9664,0.4728,55.75198441,48.74341225,1.52999997,
6.328562,-0.5680,-0.9664,0.4728,55.75198441,48.74341225,1.52999997,
6.341166,-0.5680,-0.9664,0.4728,55.75198441,48.74341225,1.52999997,
6.341911,-0.5234,0.3774,-2.8472,55.75198441,48.74341225,1.52999997,
6.359893,-0.5234,0.3774,-2.8472,55.75198441,48.74341225,1.52999997,
6.379571,-0.5234,0.3774,-2.8472,55.75198441,48.74341225,1.52999997,
6.400110,-0.5234,0.3774,-2.8472,55.75198441,48.74341225,1.52999997,
6.401516,-0.5234,0.3774,-2.8472,55.75198441,48.74341225,1.52999997,
6.419757,-0.5234,0.3774,-2.8472,55.75198441,48.74341225,1.52999997,
6.421213,0.2819,0.2120,-6.5990,55.75198441,48.74341225,1.52999997,
6.440529,0.2819,0.2120,-6.5990,55.75198441,48.74341225,1.52999997,
6.459865,0.2819,0.2120,-6.5990,55.75198441,48.74341225,1.52999997,
6.460422,0.2819,0.2120,-6.5990,55.75198441,48.74341225,1.52999997,
6.479683,0.2819,0.2120,-6.5990,55.75198441,48.74341225,1.52999997,
6.481180,0.0946,0.1713,-2.8088,55.75198441,48.74341225,1.52999997,
6.498814,0.0946,0.1713,-2.8088,55.75198441,48.74341225,1.52999997,
6.518170,0.0946,0.1713,-2.8088,55.75198441,48.74341225,1.52999997,
6.538180,0.0946,0.1713,-2.8088,55.75198441,48.74341225,1.52999997,
6.540451,0.0946,0.1713,-2.8088,55.75198441,48.74341225,1.52999997,
6.558993,0.0946,0.1713,-2.8088,55.75198441,48.74341225,1.52999997,
6.559909,-0.7236,1.2572,1.6349,55.75198441,48.74341225,1.52999997,
6.580973,-0.7236,1.2572,1.6349,55.75198441,48.74341225,1.52999997,
6.598920,-0.7236,1.2572,1.6349,55.75198441,48.74341225,1.52999997,
6.599752,-0.7236,1.2572,1.6349,55.75198441,48.74341225,1.52999997,
6.617485,-0.7236,1.2572,1.6349,55.75198441,48.74341225,1.52999997,
6.619411,-0.3944,0.4894,5.2762,55.75198441,48.74341225,1.52999997,
6.638056,-0.3944,0.4894,5.2762,55.75198441,48.74341225,1.52999997,
6.656177,-0.3944,0.4894,5.2762,55.75198441,48.74341225,1.52999997,
6.677263,-0.3944,0.4894,5.2762,55.75198441,48.74341225,1.52999997,
6.678989,-0.3944,0.4894,5.2762,55.75198441,48.74341225,1.52999997,
6.696346,-0.3944,0.4894,5.2762,55.75198441,48.74341225,1.52999997,
6.697839,0.3096,0.4106,4.1485,55.75198441,48.74341225,1.52999997,
6.715513,0.3096,0.4106,4.1485,55.75198441,48.74341225,1.52999997,
6.734758,0.3096,0.4106,4.1485,55.75198441,48.74341225,1.52999997,
6.735262,0.3096,0.4106,4.1485,55.75198441,48.74341225,1.52999997,
6.755596,1.2811,-1.4915,0.4863,55.75198441,48.74341225,1.52999997,
6.757861,1.2811,-1.4915,0.4863,55.75198441,48.74341225,1.52999997,
6.776470,1.2811,-1.4915,0.4863,55.75198441,48.74341225,1.52999997,
6.795250,1.2811,-1.4915,0.4863,55.75198441,48.74341225,1.52999997,
6.814251,1.2811,-1.4915,0.4863,55.75198441,48.74341225,1.52999997,
6.815245,1.2811,-1.4915,0.4863,55.75198441,48.74341225,1.52999997,
6.830981,1.2811,-1.4915,0.4863,55.75198441,48.74341225,1.52999997,
6.832098,-0.2636,-0.1486,-2.5302,55.75198441,48.74341225,1.52999997,
6.845272,-0.2636,-0.1486,-2.5302,55.75198441,48.74341225,1.52999997,
6.865359,-0.2636,-0.1486,-2.5302,55.75198441,48.74341225,1.52999997,
6.883442,-0.2636,-0.1486,-2.5302,55.75198441,48.74341225,1.52999997,
6.884234,-0.2636,-0.1486,-2.5302,55.75197156,48.74342964,1.49000001,
6.902907,-0.6810,-0.9387,-2.4177,55.75197156,48.74342964,1.49000001,
6.904108,-0.6810,-0.9387,-2.4177,55.75197156,48.74342964,1.49000001,
6.923262,-0.6810,-0.9387,-2.4177,55.75197156,48.74342964,1.49000001,
6.943149,-0.6810,-0.9387,-2.4177,55.75197156,48.74342964,1.49000001,
6.944523,-0.6810,-0.9387,-2.4177,55.75197156,48.74342964,1.49000001,
6.963307,0.5131,-0.8279,-2.2103,55.75197156,48.74342964,1.49000001,
6.965471,0.5131,-0.8279,-2.2103,55.75197156,48.74342964,1.49000001,
6.983024,0.5131,-0.8279,-2.2103,55.75197156,48.74342964,1.49000001,
7.002776,0.5131,-0.8279,-2.2103,55.75197156,48.74342964,1.49000001,
7.022686,0.5131,-0.8279,-2.2103,55.75197156,48.74342964,1.49000001,
7.024169,0.5131,-0.8279,-2.2103,55.75197156,48.74342964,1.49000001,
7.043021,0.5131,-0.8279,-2.2103,55.75197156,48.74342964,1.49000001,
7.043879,0.8577,0.9989,-0.5840,55.75197156,48.74342964,1.49000001,
7.062165,0.8577,0.9989,-0.5840,55.75197156,48.74342964,1.49000001,
7.091141,0.8577,0.9989,-0.5840,55.75197156,48.74342964,1.49000001,
7.092361,0.8577,0.9989,-0.5840,55.75197156,48.74342964,1.49000001,
7.112344,0.8577,0.9989,-0.5840,55.75197156,48.74342964,1.49000001,
7.114387,0.0312,0.6084,1.6572,55.75197156,48.74342964,1.49000001,
7.131246,0.0312,0.6084,1.6572,55.75197156,48.74342964,1.49000001,
7.151812,0.0312,0.6084,1.6572,55.75197156,48.74342964,1.49000001,
7.152637,0.0312,0.6084,1.6572,55.75197156,48.74342964,1.49000001,
7.170878,0.0312,0.6084,1.6572,55.75197156,48.74342964,1.49000001,
7.172346,-0.1390,-0.1537,1.1158,55.75197156,48.74342964,1.49000001,
7.190223,-0.1390,-0.1537,1.1158,55.75197156,48.74342964,1.49000001,
7.209409,-0.1390,-0.1537,1.1158,55.75197156,48.74342964,1.49000001,
7.230286,-0.1390,-0.1537,1.1158,55.75197156,48.74342964,1.49000001,
7.231871,-0.1390,-0.1537,1.1158,55.75197156,48.74342964,1.49000001,
7.249481,-0.1390,-0.1537,1.1158,55.75197156,48.74342964,1.49000001,
7.250877,0.1667,-0.5696,1.1216,55.75197156,48.74342964,1.49000001,
7.268151,0.1667,-0.5696,1.1216,55.75197156,48.74342964,1.49000001,
7.288973,0.1667,-0.5696,1.1216,55.75197156,48.74342964,1.49000001,
7.290012,0.1667,-0.5696,1.1216,55.75197156,48.74342964,1.49000001,
7.307848,0.1667,-0.5696,1.1216,55.75197156,48.74342964,1.49000001,
7.308981,-0.9573,-0.4183,1.9894,55.75197156,48.74342964,1.49000001,
7.329270,-0.9573,-0.4183,1.9894,55.75197156,48.74342964,1.49000001,
7.348670,-0.9573,-0.4183,1.9894,55.75197156,48.74342964,1.49000001,
7.367481,-0.9573,-0.4183,1.9894,55.75197156,48.74342964,1.49000001,
7.367950,-0.9573,-0.4183,1.9894,55.75197156,48.74342964,1.49000001,
7.387751,-1.3659,0.8243,-1.1971,55.75197156,48.74342964,1.49000001,
7.390931,-1.3659,0.8243,-1.1971,55.75197156,48.74342964,1.49000001,
7.408242,-1.3659,0.8243,-1.1971,55.75197156,48.74342964,1.49000001,
7.427741,-1.3659,0.8243,-1.1971,55.75197156,48.74342964,1.49000001,
7.428362,-1.3659,0.8243,-1.1971,55.75197156,48.74342964,1.49000001,
7.447591,-0.3761,-0.1364,-2.7652,55.75197156,48.74342964,1.49000001,
7.450374,-0.3761,-0.1364,-2.7652,55.75197156,48.74342964,1.49000001,
7.465768,-0.3761,-0.1364,-2.7652,55.75197156,48.74342964,1.49000001,
7.487017,-0.3761,-0.1364,-2.7652,55.75197156,48.74342964,1.49000001,
7.507627,-0.3761,-0.1364,-2.7652,55.75197156,48.74342964,1.49000001,
7.508477,-0.3761,-0.1364,-2.7652,55.75197156,48.74342964,1.49000001,
7.527196,-0.3761,-0.1364,-2.7652,55.75197156,48.74342964,1.49000001,
7.528343,0.3354,0.1320,-2.7845,55.75197156,48.74342964,1.49000001,
7.547023,0.3354,0.1320,-2.7845,55.75197156,48.74342964,1.49000001,
7.566686,0.3354,0.1320,-2.7845,55.75197156,48.74342964,1.49000001,
7.568704,0.3354,0.1320,-2.7845,55.75197156,48.74342964,1.49000001,
7.580397,0.3354,0.1320,-2.7845,55.75197156,48.74342964,1.49000001,
7.594917,0.3354,0.1320,-2.7845,55.75197156,48.74342964,1.49000001,
7.595758,-0.5071,1.0693,-0.3624,55.75197156,48.74342964,1.49000001,
7.616071,-0.5071,1.0693,-0.3624,55.75197156,48.74342964,1.49000001,
7.634009,-0.5071,1.0693,-0.3624,55.75197156,48.74342964,1.49000001,
7.634934,-0.5071,1.0693,-0.3624,55.75197156,48.74342964,1.49000001,
7.655337,-0.1939,0.3594,3.0733,55.75197156,48.74342964,1.49000001,
7.656689,-0.1939,0.3594,3.0733,55.75197156,48.74342964,1.49000001,
7.674436,-0.1939,0.3594,3.0733,55.75197156,48.74342964,1.49000001,
7.693385,-0.1939,0.3594,3.0733,55.75197156,48.74342964,1.49000001,
7.714717,-0.1939,0.3594,3.0733,55.75197156,48.74342964,1.49000001,
7.715624,-0.1939,0.3594,3.0733,55.75197156,48.74342964,1.49000001,
7.732751,0.1935,0.5738,2.7316,55.75197156,48.74342964,1.49000001,
7.733958,0.1935,0.5738,2.7316,55.75197156,48.74342964,1.49000001,
7.753133,0.1935,0.5738,2.7316,55.75197156,48.74342964,1.49000001,
7.772079,0.1935,0.5738,2.7316,55.75197156,48.74342964,1.49000001,
7.772895,0.1935,0.5738,2.7316,55.75197156,48.74342964,1.49000001,
7.792270,1.1483,-0.9621,2.2510,55.75197156,48.74342964,1.49000001,
7.794070,1.1483,-0.9621,2.2510,55.75197156,48.74342964,1.49000001,
7.813245,1.1483,-0.9621,2.2510,55.75197156,48.74342964,1.49000001,
7.842234,1.1483,-0.9621,2.2510,55.75197156,48.74342964,1.49000001,
7.843034,1.1483,-0.9621,2.2510,55.75197156,48.74342964,1.49000001,
7.861898,1.1483,-0.9621,2.2510,55.75197156,48.74342964,1.49000001,
7.862427,0.6262,-0.0618,-1.4469,55.75195984,48.74344257,1.45000005,
7.881294,0.6262,-0.0618,-1.4469,55.75195984,48.74344257,1.45000005,
7.901029,0.6262,-0.0618,-1.4469,55.75195984,48.74344257,1.45000005,
7.921409,0.6262,-0.0618,-1.4469,55.75195984,48.74344257,1.45000005,
7.922407,0.6262,-0.0618,-1.4469,55.75195984,48.74344257,1.45000005,
7.939735,0.0631,-0.5412,-2.5783,55.75195984,48.74344257,1.45000005,
7.941112,0.0631,-0.5412,-2.5783,55.75195984,48.74344257,1.45000005,
7.959945,0.0631,-0.5412,-2.5783,55.75195984,48.74344257,1.45000005,
7.980398,0.0631,-0.5412,-2.5783,55.75195984,48.74344257,1.45000005,
7.982014,0.0631,-0.5412,-2.5783,55.75195984,48.74344257,1.45000005,
8.000088,0.0631,-0.5412,-2.5783,55.75195984,48.74344257,1.45000005,
8.000921,0.2010,-0.4984,-1.9805,55.75195984,48.74344257,1.45000005,
8.019156,0.2010,-0.4984,-1.9805,55.75195984,48.74344257,1.45000005,
8.040077,0.2010,-0.4984,-1.9805,55.75195984,48.74344257,1.45000005,
8.058615,0.2010,-0.4984,-1.9805,55.75195984,48.74344257,1.45000005,
8.059672,0.2010,-0.4984,-1.9805,55.75195984,48.74344257,1.45000005,
8.081209,0.2010,-0.4984,-1.9805,55.75195984,48.74344257,1.45000005,
8.082560,0.4793,1.0334,-1.5304,55.75195984,48.74344257,1.45000005,
8.098930,0.4793,1.0334,-1.5304,55.75195984,48.74344257,1.45000005,
8.120022,0.4793,1.0334,-1.5304,55.75195984,48.74344257,1.45000005,
8.121927,0.4793,1.0334,-1.5304,55.75195984,48.74344257,1.45000005,
8.138956,-0.0530,0.6224,2.1627,55.75195984,48.74344257,1.45000005,
8.140090,-0.0530,0.6224,2.1627,55.75195984,48.74344257,1.45000005,
8.157949,-0.0530,0.6224,2.1627,55.75195984,48.74344257,1.45000005,
8.176581,-0.0530,0.6224,2.1627,55.75195984,48.74344257,1.45000005,
8.197866,-0.0530,0.6224,2.1627,55.75195984,48.74344257,1.45000005,
8.200099,-0.0530,0.6224,2.1627,55.75195984,48.74344257,1.45000005,
8.216657,0.2525,0.4811,1.9016,55.75195984,48.74344257,1.45000005,
8.218551,0.2525,0.4811,1.9016,55.75195984,48.74344257,1.45000005,
8.237423,0.2525,0.4811,1.9016,55.75195984,48.74344257,1.45000005,
8.256165,0.2525,0.4811,1.9016,55.75195984,48.74344257,1.45000005,
8.257469,0.2525,0.4811,1.9016,55.75195984,48.74344257,1.45000005,
8.276692,0.2525,0.4811,1.9016,55.75195984,48.74344257,1.45000005,
8.277194,-0.2193,0.9335,0.6309,55.75195984,48.74344257,1.45000005,
8.295999,-0.2193,0.9335,0.6309,55.75195984,48.74344257,1.45000005,
8.317355,-0.2193,0.9335,0.6309,55.75195984,48.74344257,1.45000005,
8.328948,-0.2193,0.9335,0.6309,55.75195984,48.74344257,1.45000005,
8.330347,-0.2193,0.9335,0.6309,55.75195984,48.74344257,1.45000005,
8.344506,-0.2193,0.9335,0.6309,55.75195984,48.74344257,1.45000005,
8.345432,-0.0479,-1.6707,2.2279,55.75195984,48.74344257,1.45000005,
8.364990,-0.0479,-1.6707,2.2279,55.75195984,48.74344257,1.45000005,
8.385841,-0.0479,-1.6707,2.2279,55.75195984,48.74344257,1.45000005,
8.404487,-0.0479,-1.6707,2.2279,55.75195984,48.74344257,1.45000005,
8.406014,-0.0479,-1.6707,2.2279,55.75195984,48.74344257,1.45000005,
8.426269,-0.0479,-1.6707,2.2279,55.75195984,48.74344257,1.45000005,
8.427369,-1.0167,-0.3473,-1.3284,55.75195984,48.74344257,1.45000005,
8.444675,-1.0167,-0.3473,-1.3284,55.75195984,48.74344257,1.45000005,
8.463244,-1.0167,-0.3473,-1.3284,55.75195984,48.74344257,1.45000005,
8.464337,-1.0167,-0.3473,-1.3284,55.75195984,48.74344257,1.45000005,
8.483909,0.3378,-0.1933,-2.8874,55.75195984,48.74344257,1.45000005,
8.486873,0.3378,-0.1933,-2.8874,55.75195984,48.74344257,1.45000005,
8.504658,0.3378,-0.1933,-2.8874,55.75195984,48.74344257,1.45000005,
8.522765,0.3378,-0.1933,-2.8874,55.75195984,48.74344257,1.45000005,
8.543403,0.3378,-0.1933,-2.8874,55.75195984,48.74344257,1.45000005,
8.545177,0.3378,-0.1933,-2.8874,55.75195984,48.74344257,1.45000005,
8.563922,0.3378,-0.1933,-2.8874,55.75195984,48.74344257,1.45000005,
8.564670,0.7813,-0.0778,-2.9045,55.75195984,48.74344257,1.45000005,
8.592228,0.7813,-0.0778,-2.9045,55.75195984,48.74344257,1.45000005,
8.611501,0.7813,-0.0778,-2.9045,55.75195984,48.74344257,1.45000005,
8.612708,0.7813,-0.0778,-2.9045,55.75195984,48.74344257,1.45000005,
8.632851,0.7813,-0.0778,-2.9045,55.75195984,48.74344257,1.45000005,
8.633870,0.4927,0.5913,-0.3848,55.75195984,48.74344257,1.45000005,
8.651256,0.4927,0.5913,-0.3848,55.75195984,48.74344257,1.45000005,
8.671848,0.4927,0.5913,-0.3848,55.75195984,48.74344257,1.45000005,
8.673835,0.4927,0.5913,-0.3848,55.75195984,48.74344257,1.45000005,
8.690781,0.4927,0.5913,-0.3848,55.75195984,48.74344257,1.45000005,
8.691757,-0.3510,0.8674,2.7882,55.75195984,48.74344257,1.45000005,
8.710891,-0.3510,0.8674,2.7882,55.75195984,48.74344257,1.45000005,
8.730227,-0.3510,0.8674,2.7882,55.75195984,48.74344257,1.45000005,
8.749524,-0.3510,0.8674,2.7882,55.75195984,48.74344257,1.45000005,
8.751480,-0.3510,0.8674,2.7882,55.75195984,48.74344257,1.45000005,
8.770750,-0.3510,0.8674,2.7882,55.75195984,48.74344257,1.45000005,
8.771411,-0.4172,0.9730,2.8194,55.75195984,48.74344257,1.45000005,
8.790034,-0.4172,0.9730,2.8194,55.75195984,48.74344257,1.45000005,
8.809806,-0.4172,0.9730,2.8194,55.75195984,48.74344257,1.45000005,
8.810700,-0.4172,0.9730,2.8194,55.75195984,48.74344257,1.45000005,
8.830604,-0.4172,0.9730,2.8194,55.75195984,48.74344257,1.45000005,
8.838478,0.2651,-0.8268,3.0084,55.75195984,48.74344257,1.45000005,
8.839864,0.2651,-0.8268,3.0084,55.75195984,48.74344257,1.45000005,
8.861426,0.2651,-0.8268,3.0084,55.75195984,48.74344257,1.45000005,
8.879470,0.2651,-0.8268,3.0084,55.75195984,48.74344257,1.45000005,
8.880033,0.2651,-0.8268,3.0084,55.75194849,48.74345331,1.50000000,
8.898499,0.2999,-0.7212,-0.5475,55.75194849,48.74345331,1.50000000,
8.900364,0.2999,-0.7212,-0.5475,55.75194849,48.74345331,1.50000000,
8.917845,0.2999,-0.7212,-0.5475,55.75194849,48.74345331,1.50000000,
8.936914,0.2999,-0.7212,-0.5475,55.75194849,48.74345331,1.50000000,
8.957512,0.2999,-0.7212,-0.5475,55.75194849,48.74345331,1.50000000,
8.959596,0.2999,-0.7212,-0.5475,55.75194849,48.74345331,1.50000000,
8.977735,0.2999,-0.7212,-0.5475,55.75194849,48.74345331,1.50000000,
8.978646,-0.5025,0.0559,-2.8763,55.75194849,48.74345331,1.50000000,
8.996826,-0.5025,0.0559,-2.8763,55.75194849,48.74345331,1.50000000,
9.016574,-0.5025,0.0559,-2.8763,55.75194849,48.74345331,1.50000000,
9.018483,-0.5025,0.0559,-2.8763,55.75194849,48.74345331,1.50000000,
9.036816,0.1157,-0.7656,-1.9586,55.75194849,48.74345331,1.50000000,
9.037851,0.1157,-0.7656,-1.9586,55.75194849,48.74345331,1.50000000,
9.056903,0.1157,-0.7656,-1.9586,55.75194849,48.74345331,1.50000000,
9.076157,0.1157,-0.7656,-1.9586,55.75194849,48.74345331,1.50000000,
9.096098,0.1157,-0.7656,-1.9586,55.75194849,48.74345331,1.50000000,
9.097957,0.1157,-0.7656,-1.9586,55.75194849,48.74345331,1.50000000,
9.116601,1.1221,0.1941,-2.8024,55.75194849,48.74345331,1.50000000,
9.117422,1.1221,0.1941,-2.8024,55.75194849,48.74345331,1.50000000,
9.135561,1.1221,0.1941,-2.8024,55.75194849,48.74345331,1.50000000,
9.155858,1.1221,0.1941,-2.8024,55.75194849,48.74345331,1.50000000,
9.158243,1.1221,0.1941,-2.8024,55.75194849,48.74345331,1.50000000,
9.174378,1.1221,0.1941,-2.8024,55.75194849,48.74345331,1.50000000,
9.175551,0.7268,0.3872,0.9117,55.75194849,48.74345331,1.50000000,
9.194568,0.7268,0.3872,0.9117,55.75194849,48.74345331,1.50000000,
9.215363,0.7268,0.3872,0.9117,55.75194849,48.74345331,1.50000000,
9.233759,0.7268,0.3872,0.9117,55.75194849,48.74345331,1.50000000,
9.234552,0.7268,0.3872,0.9117,55.75194849,48.74345331,1.50000000,
9.255065,0.7268,0.3872,0.9117,55.75194849,48.74345331,1.50000000,
9.255915,-0.1867,0.1092,2.9349,55.75194849,48.74345331,1.50000000,
9.274463,-0.1867,0.1092,2.9349,55.75194849,48.74345331,1.50000000,
9.293872,-0.1867,0.1092,2.9349,55.75194849,48.74345331,1.50000000,
9.295121,-0.1867,0.1092,2.9349,55.75194849,48.74345331,1.50000000,
9.312870,-0.6247,0.7177,1.3799,55.75194849,48.74345331,1.50000000,
9.314014,-0.6247,0.7177,1.3799,55.75194849,48.74345331,1.50000000,
9.342359,-0.6247,0.7177,1.3799,55.75194849,48.74345331,1.50000000,
9.362074,-0.6247,0.7177,1.3799,55.75194849,48.74345331,1.50000000,
9.363213,-0.6247,0.7177,1.3799,55.75194849,48.74345331,1.50000000,
9.381875,-0.9940,-0.8584,1.9935,55.75194849,48.74345331,1.50000000,
9.383573,-0.9940,-0.8584,1.9935,55.75194849,48.74345331,1.50000000,
9.401827,-0.9940,-0.8584,1.9935,55.75194849,48.74345331,1.50000000,
9.422489,-0.9940,-0.8584,1.9935,55.75194849,48.74345331,1.50000000,
9.443192,-0.9940,-0.8584,1.9935,55.75194849,48.74345331,1.50000000,
9.445291,-0.9940,-0.8584,1.9935,55.75194849,48.74345331,1.50000000,
9.462343,-1.7159,-0.0435,-0.4303,55.75194849,48.74345331,1.50000000,
9.463400,-1.7159,-0.0435,-0.4303,55.75194849,48.74345331,1.50000000,
9.480514,-1.7159,-0.0435,-0.4303,55.75194849,48.74345331,1.50000000,
9.501713,-1.7159,-0.0435,-0.4303,55.75194849,48.74345331,1.50000000,
9.502865,-1.7159,-0.0435,-0.4303,55.75194849,48.74345331,1.50000000,
9.521487,-1.7159,-0.0435,-0.4303,55.75194849,48.74345331,1.50000000,
9.522737,-1.0422,0.3010,-2.1515,55.75194849,48.74345331,1.50000000,
9.542043,-1.0422,0.3010,-2.1515,55.75194849,48.74345331,1.50000000,
9.562891,-1.0422,0.3010,-2.1515,55.75194849,48.74345331,1.50000000,
9.578377,-1.0422,0.3010,-2.1515,55.75194849,48.74345331,1.50000000,
9.579250,-1.0422,0.3010,-2.1515,55.75194849,48.74345331,1.50000000,
9.589363,0.2364,0.6913,-3.1242,55.75194849,48.74345331,1.50000000,
9.590714,0.2364,0.6913,-3.1242,55.75194849,48.74345331,1.50000000,
9.608486,0.2364,0.6913,-3.1242,55.75194849,48.74345331,1.50000000,
9.628826,0.2364,0.6913,-3.1242,55.75194849,48.74345331,1.50000000,
9.650100,0.2364,0.6913,-3.1242,55.75194849,48.74345331,1.50000000,
9.651009,0.2364,0.6913,-3.1242,55.75194849,48.74345331,1.50000000,
9.668642,0.2364,0.6913,-3.1242,55.75194849,48.74345331,1.50000000,
9.669251,0.0277,-0.2830,-1.4379,55.75194849,48.74345331,1.50000000,
9.687982,0.0277,-0.2830,-1.4379,55.75194849,48.74345331,1.50000000,
9.707647,0.0277,-0.2830,-1.4379,55.75194849,48.74345331,1.50000000,
9.709150,0.0277,-0.2830,-1.4379,55.75194849,48.74345331,1.50000000,
9.727473,0.0277,-0.2830,-1.4379,55.75194849,48.74345331,1.50000000,
9.728054,-0.7938,0.8460,-1.1368,55.75194849,48.74345331,1.50000000,
9.747688,-0.7938,0.8460,-1.1368,55.75194849,48.74345331,1.50000000,
9.766819,-0.7938,0.8460,-1.1368,55.75194849,48.74345331,1.50000000,
9.787983,-0.7938,0.8460,-1.1368,55.75194849,48.74345331,1.50000000,
9.788687,-0.7938,0.8460,-1.1368,55.75194849,48.74345331,1.50000000,
9.807753,-0.7938,0.8460,-1.1368,55.75194849,48.74345331,1.50000000,
9.809287,0.3427,0.1022,3.0549,55.75194849,48.74345331,1.50000000,
9.827076,0.3427,0.1022,3.0549,55.75194849,48.74345331,1.50000000,
9.851216,0.3427,0.1022,3.0549,55.75194849,48.74345331,1.50000000,
9.852282,0.3427,0.1022,3.0549,55.75194849,48.74345331,1.50000000,
9.865377,0.3427,0.1022,3.0549,55.75194849,48.74345331,1.50000000,
9.865908,0.8406,-0.0945,4.2211,55.75193778,48.74346203,1.47000003,
9.886102,0.8406,-0.0945,4.2211,55.75193778,48.74346203,1.47000003,
9.906793,0.8406,-0.0945,4.2211,55.75193778,48.74346203,1.47000003,
9.924914,0.8406,-0.0945,4.2211,55.75193778,48.74346203,1.47000003,
9.926809,0.8406,-0.0945,4.2211,55.75193778,48.74346203,1.47000003,
9.946381,1.6165,-0.3137,0.2556,55.75193778,48.74346203,1.47000003,
9.947787,1.6165,-0.3137,0.2556,55.75193778,48.74346203,1.47000003,
9.965441,1.6165,-0.3137,0.2556,55.75193778,48.74346203,1.47000003,
9.984378,1.6165,-0.3137,0.2556,55.75193778,48.74346203,1.47000003,
9.985862,1.6165,-0.3137,0.2556,55.75193778,48.74346203,1.47000003,
10.005052,1.6165,-0.3137,0.2556,55.75193778,48.74346203,1.47000003,
10.007170,0.1585,0.0716,-0.7871,55.75193778,48.74346203,1.47000003,
10.024385,0.1585,0.0716,-0.7871,55.75193778,48.74346203,1.47000003,
10.045986,0.1585,0.0716,-0.7871,55.75193778,48.74346203,1.47000003,
10.065404,0.1585,0.0716,-0.7871,55.75193778,48.74346203,1.47000003,
10.066521,0.1585,0.0716,-0.7871,55.75193778,48.74346203,1.47000003,
10.080041,-0.0095,-0.0693,-2.2221,55.75193778,48.74346203,1.47000003,
10.093250,-0.0095,-0.0693,-2.2221,55.75193778,48.74346203,1.47000003,
10.112997,-0.0095,-0.0693,-2.2221,55.75193778,48.74346203,1.47000003,
10.132876,-0.0095,-0.0693,-2.2221,55.75193778,48.74346203,1.47000003,
10.133653,-0.0095,-0.0693,-2.2221,55.75193778,48.74346203,1.47000003,
10.152045,-0.0095,-0.0693,-2.2221,55.75193778,48.74346203,1.47000003,
10.153256,0.2073,-0.4886,-2.9218,55.75193778,48.74346203,1.47000003,
10.171815,0.2073,-0.4886,-2.9218,55.75193778,48.74346203,1.47000003,
10.191132,0.2073,-0.4886,-2.9218,55.75193778,48.74346203,1.47000003,
10.192011,0.2073,-0.4886,-2.9218,55.75193778,48.74346203,1.47000003,
10.212453,0.2073,-0.4886,-2.9218,55.75193778,48.74346203,1.47000003,
10.214737,-0.0627,0.3302,-1.2458,55.75193778,48.74346203,1.47000003,
10.230829,-0.0627,0.3302,-1.2458,55.75193778,48.74346203,1.47000003,
10.251195,-0.0627,0.3302,-1.2458,55.75193778,48.74346203,1.47000003,
10.270978,-0.0627,0.3302,-1.2458,55.75193778,48.74346203,1.47000003,
10.272476,-0.0627,0.3302,-1.2458,55.75193778,48.74346203,1.47000003,
10.290850,-0.0627,0.3302,-1.2458,55.75193778,48.74346203,1.47000003,
10.291841,0.2272,0.5770,1.3536,55.75193778,48.74346203,1.47000003,
10.310806,0.2272,0.5770,1.3536,55.75193778,48.74346203,1.47000003,
10.329285,0.2272,0.5770,1.3536,55.75193778,48.74346203,1.47000003,
10.340138,0.2272,0.5770,1.3536,55.75193778,48.74346203,1.47000003,
10.341167,0.2272,0.5770,1.3536,55.75193778,48.74346203,1.47000003,
10.360968,0.2272,0.5770,1.3536,55.75193778,48.74346203,1.47000003,
10.362030,0.7409,0.6985,3.0363,55.75193778,48.74346203,1.47000003,
10.379637,0.7409,0.6985,3.0363,55.75193778,48.74346203,1.47000003,
10.400456,0.7409,0.6985,3.0363,55.75193778,48.74346203,1.47000003,
10.401313,0.7409,0.6985,3.0363,55.75193778,48.74346203,1.47000003,
10.419010,0.7409,0.6985,3.0363,55.75193778,48.74346203,1.47000003,
10.420061,-0.4710,-0.9284,1.6460,55.75193778,48.74346203,1.47000003,
10.439488,-0.4710,-0.9284,1.6460,55.75193778,48.74346203,1.47000003,
10.459804,-0.4710,-0.9284,1.6460,55.75193778,48.74346203,1.47000003,
10.478472,-0.4710,-0.9284,1.6460,55.75193778,48.74346203,1.47000003,
10.479015,-0.4710,-0.9284,1.6460,55.75193778,48.74346203,1.47000003,
10.498225,-0.8114,-0.8912,0.5508,55.75193778,48.74346203,1.47000003,
10.500179,-0.8114,-0.8912,0.5508,55.75193778,48.74346203,1.47000003,
10.517460,-0.8114,-0.8912,0.5508,55.75193778,48.74346203,1.47000003,
10.539188,-0.8114,-0.8912,0.5508,55.75193778,48.74346203,1.47000003,
10.540099,-0.8114,-0.8912,0.5508,55.75193778,48.74346203,1.47000003,
10.556505,-0.8114,-0.8912,0.5508,55.75193778,48.74346203,1.47000003,
10.557718,-0.0164,0.1556,-1.2700,55.75193778,48.74346203,1.47000003,
10.578106,-0.0164,0.1556,-1.2700,55.75193778,48.74346203,1.47000003,
10.597106,-0.0164,0.1556,-1.2700,55.75193778,48.74346203,1.47000003,
10.618447,-0.0164,0.1556,-1.2700,55.75193778,48.74346203,1.47000003,
10.619490,-0.0164,0.1556,-1.2700,55.75193778,48.74346203,1.47000003,
10.636031,-0.0227,0.6464,-3.6431,55.75193778,48.74346203,1.47000003,
10.637457,-0.0227,0.6464,-3.6431,55.75193778,48.74346203,1.47000003,
10.656901,-0.0227,0.6464,-3.6431,55.75193778,48.74346203,1.47000003,
10.675866,-0.0227,0.6464,-3.6431,55.75193778,48.74346203,1.47000003,
10.676853,-0.0227,0.6464,-3.6431,55.75193778,48.74346203,1.47000003,
10.695915,-0.0227,0.6464,-3.6431,55.75193778,48.74346203,1.47000003,
10.697175,-0.1269,0.6377,-2.2998,55.75193778,48.74346203,1.47000003,
10.715566,-0.1269,0.6377,-2.2998,55.75193778,48.74346203,1.47000003,
10.734721,-0.1269,0.6377,-2.2998,55.75193778,48.74346203,1.47000003,
10.755223,-0.1269,0.6377,-2.2998,55.75193778,48.74346203,1.47000003,
10.756821,-0.1269,0.6377,-2.2998,55.75193778,48.74346203,1.47000003,
10.775064,-0.1269,0.6377,-2.2998,55.75193778,48.74346203,1.47000003,
10.775851,-0.0233,0.4678,0.3521,55.75193778,48.74346203,1.47000003,
10.796330,-0.0233,0.4678,0.3521,55.75193778,48.74346203,1.47000003,
10.815662,-0.0233,0.4678,0.3521,55.75193778,48.74346203,1.47000003,
10.816483,-0.0233,0.4678,0.3521,55.75193778,48.74346203,1.47000003,
10.843426,-0.0233,0.4678,0.3521,55.75193778,48.74346203,1.47000003,
10.844624,0.1910,-0.1606,4.8429,55.75193778,48.74346203,1.47000003,
10.863255,0.1910,-0.1606,4.8429,55.75193778,48.74346203,1.47000003,
10.883624,0.1910,-0.1606,4.8429,55.75192641,48.74347148,1.52999997,
10.886513,0.1910,-0.1606,4.8429,55.75192641,48.74347148,1.52999997,
10.903018,0.1910,-0.1606,4.8429,55.75192641,48.74347148,1.52999997,
10.904856,-0.0335,0.7245,3.4830,55.75192641,48.74347148,1.52999997,
10.922400,-0.0335,0.7245,3.4830,55.75192641,48.74347148,1.52999997,
10.942349,-0.0335,0.7245,3.4830,55.75192641,48.74347148,1.52999997,
10.962880,-0.0335,0.7245,3.4830,55.75192641,48.74347148,1.52999997,
10.963800,-0.0335,0.7245,3.4830,55.75192641,48.74347148,1.52999997,
10.983024,-0.0335,0.7245,3.4830,55.75192641,48.74347148,1.52999997,
10.983769,0.3737,-2.0614,1.8181,55.75192641,48.74347148,1.52999997,
11.002252,0.3737,-2.0614,1.8181,55.75192641,48.74347148,1.52999997,
11.021990,0.3737,-2.0614,1.8181,55.75192641,48.74347148,1.52999997,
11.022860,0.3737,-2.0614,1.8181,55.75192641,48.74347148,1.52999997,
11.042025,0.3737,-2.0614,1.8181,55.75192641,48.74347148,1.52999997,
11.042853,-0.5145,0.2256,-2.0406,55.75192641,48.74347148,1.52999997,
11.061914,-0.5145,0.2256,-2.0406,55.75192641,48.74347148,1.52999997,
11.080000,-0.5145,0.2256,-2.0406,55.75192641,48.74347148,1.52999997,
11.090950,-0.5145,0.2256,-2.0406,55.75192641,48.74347148,1.52999997,
11.091505,-0.5145,0.2256,-2.0406,55.75192641,48.74347148,1.52999997,
11.109318,-0.5145,0.2256,-2.0406,55.75192641,48.74347148,1.52999997,
11.111503,-0.3864,0.5436,-3.4642,55.75192641,48.74347148,1.52999997,
11.131006,-0.3864,0.5436,-3.4642,55.75192641,48.74347148,1.52999997,
11.149715,-0.3864,0.5436,-3.4642,55.75192641,48.74347148,1.52999997,
11.170612,-0.3864,0.5436,-3.4642,55.75192641,48.74347148,1.52999997,
11.171415,-0.3864,0.5436,-3.4642,55.75192641,48.74347148,1.52999997,
11.188574,-0.3864,0.5436,-3.4642,55.75192641,48.74347148,1.52999997,
11.190286,1.1524,0.1084,-3.1830,55.75192641,48.74347148,1.52999997,
11.209257,1.1524,0.1084,-3.1830,55.75192641,48.74347148,1.52999997,
11.227942,1.1524,0.1084,-3.1830,55.75192641,48.74347148,1.52999997,
11.228798,1.1524,0.1084,-3.1830,55.75192641,48.74347148,1.52999997,
11.248025,1.1524,0.1084,-3.1830,55.75192641,48.74347148,1.52999997,
11.249031,0.9397,0.6199,-1.4903,55.75192641,48.74347148,1.52999997,
11.267217,0.9397,0.6199,-1.4903,55.75192641,48.74347148,1.52999997,
11.287337,0.9397,0.6199,-1.4903,55.75192641,48.74347148,1.52999997,
11.307063,0.9397,0.6199,-1.4903,55.75192641,48.74347148,1.52999997,
11.308431,0.9397,0.6199,-1.4903,55.75192641,48.74347148,1.52999997,
11.329837,0.9397,0.6199,-1.4903,55.75192641,48.74347148,1.52999997,
11.330746,0.2288,-0.4681,2.4969,55.75192641,48.74347148,1.52999997,
11.348149,0.2288,-0.4681,2.4969,55.75192641,48.74347148,1.52999997,
11.366711,0.2288,-0.4681,2.4969,55.75192641,48.74347148,1.52999997,
11.368137,0.2288,-0.4681,2.4969,55.75192641,48.74347148,1.52999997,
11.389245,0.2288,-0.4681,2.4969,55.75192641,48.74347148,1.52999997,
11.390844,-1.0980,1.2246,2.3145,55.75192641,48.74347148,1.52999997,
11.406334,-1.0980,1.2246,2.3145,55.75192641,48.74347148,1.52999997,
11.427570,-1.0980,1.2246,2.3145,55.75192641,48.74347148,1.52999997,
11.446658,-1.0980,1.2246,2.3145,55.75192641,48.74347148,1.52999997,
11.448376,-1.0980,1.2246,2.3145,55.75192641,48.74347148,1.52999997,
11.465784,-1.0980,1.2246,2.3145,55.75192641,48.74347148,1.52999997,
11.466755,0.2726,-0.1841,2.2415,55.75192641,48.74347148,1.52999997,
11.486114,0.2726,-0.1841,2.2415,55.75192641,48.74347148,1.52999997,
11.506483,0.2726,-0.1841,2.2415,55.75192641,48.74347148,1.52999997,
11.507352,0.2726,-0.1841,2.2415,55.75192641,48.74347148,1.52999997,
11.524942,0.2726,-0.1841,2.2415,55.75192641,48.74347148,1.52999997,
11.525957,-0.6152,-0.8279,0.7813,55.75192641,48.74347148,1.52999997,
11.544905,-0.6152,-0.8279,0.7813,55.75192641,48.74347148,1.52999997,
11.563670,-0.6152,-0.8279,0.7813,55.75192641,48.74347148,1.52999997,
11.579303,-0.6152,-0.8279,0.7813,55.75192641,48.74347148,1.52999997,
11.593837,-0.6152,-0.8279,0.7813,55.75192641,48.74347148,1.52999997,
11.595114,-0.3424,0.1788,-3.1514,55.75192641,48.74347148,1.52999997,
11.613025,-0.3424,0.1788,-3.1514,55.75192641,48.74347148,1.52999997,
11.634600,-0.3424,0.1788,-3.1514,55.75192641,48.74347148,1.52999997,
11.653097,-0.3424,0.1788,-3.1514,55.75192641,48.74347148,1.52999997,
11.654061,-0.3424,0.1788,-3.1514,55.75192641,48.74347148,1.52999997,
11.672535,-0.3424,0.1788,-3.1514,55.75192641,48.74347148,1.52999997,
11.673102,-0.6844,-0.6779,-2.9273,55.75192641,48.74347148,1.52999997,
11.692712,-0.6844,-0.6779,-2.9273,55.75192641,48.74347148,1.52999997,
11.719841,-0.6844,-0.6779,-2.9273,55.75192641,48.74347148,1.52999997,
11.720269,-0.6844,-0.6779,-2.9273,55.75192641,48.74347148,1.52999997,
11.731925,-0.6844,-0.6779,-2.9273,55.75192641,48.74347148,1.52999997,
11.732166,-0.2997,-0.3377,-2.0487,55.75192641,48.74347148,1.52999997,
11.751915,-0.2997,-0.3377,-2.0487,55.75192641,48.74347148,1.52999997,
11.771920,-0.2997,-0.3377,-2.0487,55.75192641,48.74347148,1.52999997,
11.792391,-0.2997,-0.3377,-2.0487,55.75192641,48.74347148,1.52999997,
11.794486,-0.2997,-0.3377,-2.0487,55.75192641,48.74347148,1.52999997,
11.812586,-0.2997,-0.3377,-2.0487,55.75192641,48.74347148,1.52999997,
11.812958,0.0362,1.3499,0.1518,55.75192641,48.74347148,1.52999997,
11.828933,0.0362,1.3499,0.1518,55.75192641,48.74347148,1.52999997,
11.841839,0.0362,1.3499,0.1518,55.75192641,48.74347148,1.52999997,
11.860779,0.0362,1.3499,0.1518,55.75192641,48.74347148,1.52999997,
11.861242,0.0362,1.3499,0.1518,55.75191401,48.74348293,1.54999995,
11.881068,0.3770,0.5145,4.2924,55.75191401,48.74348293,1.54999995,
11.882207,0.3770,0.5145,4.2924,55.75191401,48.74348293,1.54999995,
11.899376,0.3770,0.5145,4.2924,55.75191401,48.74348293,1.54999995,
11.919049,0.3770,0.5145,4.2924,55.75191401,48.74348293,1.54999995,
11.920006,0.3770,0.5145,4.2924,55.75191401,48.74348293,1.54999995,
11.939117,0.3770,0.5145,4.2924,55.75191401,48.74348293,1.54999995,
11.940057,0.3325,0.4032,3.2393,55.75191401,48.74348293,1.54999995,
11.959792,0.3325,0.4032,3.2393,55.75191401,48.74348293,1.54999995,
11.979038,0.3325,0.4032,3.2393,55.75191401,48.74348293,1.54999995,
12.001489,0.3325,0.4032,3.2393,55.75191401,48.74348293,1.54999995,
12.004140,0.3325,0.4032,3.2393,55.75191401,48.74348293,1.54999995,
12.018698,0.3325,0.4032,3.2393,55.75191401,48.74348293,1.54999995,
12.019865,-0.0090,-1.2654,2.2438,55.75191401,48.74348293,1.54999995,
12.038726,-0.0090,-1.2654,2.2438,55.75191401,48.74348293,1.54999995,
12.058120,-0.0090,-1.2654,2.2438,55.75191401,48.74348293,1.54999995,
12.059260,-0.0090,-1.2654,2.2438,55.75191401,48.74348293,1.54999995,
12.079402,-0.0090,-1.2654,2.2438,55.75191401,48.74348293,1.54999995,
12.080290,0.8726,-0.6917,-1.6028,55.75191401,48.74348293,1.54999995,
12.097069,0.8726,-0.6917,-1.6028,55.75191401,48.74348293,1.54999995,
12.117094,0.8726,-0.6917,-1.6028,55.75191401,48.74348293,1.54999995,
12.137440,0.8726,-0.6917,-1.6028,55.75191401,48.74348293,1.54999995,
12.138429,0.8726,-0.6917,-1.6028,55.75191401,48.74348293,1.54999995,
12.157659,0.8726,-0.6917,-1.6028,55.75191401,48.74348293,1.54999995,
12.158460,0.8547,-0.3631,-1.9597,55.75191401,48.74348293,1.54999995,
12.176758,0.8547,-0.3631,-1.9597,55.75191401,48.74348293,1.54999995,
12.195932,0.8547,-0.3631,-1.9597,55.75191401,48.74348293,1.54999995,
12.196789,0.8547,-0.3631,-1.9597,55.75191401,48.74348293,1.54999995,
12.215660,0.8547,-0.3631,-1.9597,55.75191401,48.74348293,1.54999995,
12.216726,0.3326,-0.7063,-2.4661,55.75191401,48.74348293,1.54999995,
12.236351,0.3326,-0.7063,-2.4661,55.75191401,48.74348293,1.54999995,
12.254892,0.3326,-0.7063,-2.4661,55.75191401,48.74348293,1.54999995,
12.274763,0.3326,-0.7063,-2.4661,55.75191401,48.74348293,1.54999995,
12.275732,0.3326,-0.7063,-2.4661,55.75191401,48.74348293,1.54999995,
12.294557,0.3326,-0.7063,-2.4661,55.75191401,48.74348293,1.54999995,
12.295490,-0.2483,0.0697,-1.7755,55.75191401,48.74348293,1.54999995,
12.314984,-0.2483,0.0697,-1.7755,55.75191401,48.74348293,1.54999995,
12.343379,-0.2483,0.0697,-1.7755,55.75191401,48.74348293,1.54999995,
12.343819,-0.2483,0.0697,-1.7755,55.75191401,48.74348293,1.54999995,
12.364254,-0.2483,0.0697,-1.7755,55.75191401,48.74348293,1.54999995,
12.365969,0.4478,-0.1745,-0.6463,55.75191401,48.74348293,1.54999995,
12.383752,0.4478,-0.1745,-0.6463,55.75191401,48.74348293,1.54999995,
12.403539,0.4478,-0.1745,-0.6463,55.75191401,48.74348293,1.54999995,
12.404748,0.4478,-0.1745,-0.6463,55.75191401,48.74348293,1.54999995,
12.424507,0.5907,0.2838,1.7118,55.75191401,48.74348293,1.54999995,
12.426127,0.5907,0.2838,1.7118,55.75191401,48.74348293,1.54999995,
12.443112,0.5907,0.2838,1.7118,55.75191401,48.74348293,1.54999995,
12.462732,0.5907,0.2838,1.7118,55.75191401,48.74348293,1.54999995,
12.483112,0.5907,0.2838,1.7118,55.75191401,48.74348293,1.54999995,
12.484499,0.5907,0.2838,1.7118,55.75191401,48.74348293,1.54999995,
12.502783,0.5907,0.2838,1.7118,55.75191401,48.74348293,1.54999995,
12.504459,0.3540,-0.2511,3.5504,55.75191401,48.74348293,1.54999995,
12.522537,0.3540,-0.2511,3.5504,55.75191401,48.74348293,1.54999995,
12.542205,0.3540,-0.2511,3.5504,55.75191401,48.74348293,1.54999995,
12.542588,0.3540,-0.2511,3.5504,55.75191401,48.74348293,1.54999995,
12.561420,0.3540,-0.2511,3.5504,55.75191401,48.74348293,1.54999995,
12.562268,-1.7549,-0.5237,3.4444,55.75191401,48.74348293,1.54999995,
12.578981,-1.7549,-0.5237,3.4444,55.75191401,48.74348293,1.54999995,
12.590802,-1.7549,-0.5237,3.4444,55.75191401,48.74348293,1.54999995,
12.610705,-1.7549,-0.5237,3.4444,55.75191401,48.74348293,1.54999995,
12.612312,-1.7549,-0.5237,3.4444,55.75191401,48.74348293,1.54999995,
12.630600,-1.7549,-0.5237,3.4444,55.75191401,48.74348293,1.54999995,
12.631051,-0.8732,0.4534,-0.7110,55.75191401,48.74348293,1.54999995,
12.649965,-0.8732,0.4534,-0.7110,55.75191401,48.74348293,1.54999995,
12.670090,-0.8732,0.4534,-0.7110,55.75191401,48.74348293,1.54999995,
12.690321,-0.8732,0.4534,-0.7110,55.75191401,48.74348293,1.54999995,
12.692213,-0.8732,0.4534,-0.7110,55.75191401,48.74348293,1.54999995,
12.709112,-0.8732,0.4534,-0.7110,55.75191401,48.74348293,1.54999995,
12.709518,0.0472,0.1235,-6.0455,55.75191401,48.74348293,1.54999995,
12.729173,0.0472,0.1235,-6.0455,55.75191401,48.74348293,1.54999995,
12.749183,0.0472,0.1235,-6.0455,55.75191401,48.74348293,1.54999995,
12.750887,0.0472,0.1235,-6.0455,55.75191401,48.74348293,1.54999995,
12.769437,0.0472,0.1235,-6.0455,55.75191401,48.74348293,1.54999995,
12.771126,-0.4791,-0.0566,-4.7908,55.75191401,48.74348293,1.54999995,
12.788941,-0.4791,-0.0566,-4.7908,55.75191401,48.74348293,1.54999995,
12.808983,-0.4791,-0.0566,-4.7908,55.75191401,48.74348293,1.54999995,
12.830224,-0.4791,-0.0566,-4.7908,55.75191401,48.74348293,1.54999995,
12.831305,-0.4791,-0.0566,-4.7908,55.75191401,48.74348293,1.54999995,
12.848644,-0.4791,-0.0566,-4.7908,55.75191401,48.74348293,1.54999995,
12.849062,-0.8201,1.3180,-0.1527,55.75191401,48.74348293,1.54999995,
12.867719,-0.8201,1.3180,-0.1527,55.75191401,48.74348293,1.54999995,
12.887489,-0.8201,1.3180,-0.1527,55.75190194,48.74349439,1.52999997,
12.888008,-0.8201,1.3180,-0.1527,55.75190194,48.74349439,1.52999997,
12.907260,0.2326,0.5095,5.2837,55.75190194,48.74349439,1.52999997,
12.909019,0.2326,0.5095,5.2837,55.75190194,48.74349439,1.52999997,
12.926187,0.2326,0.5095,5.2837,55.75190194,48.74349439,1.52999997,
12.946317,0.2326,0.5095,5.2837,55.75190194,48.74349439,1.52999997,
12.966352,0.2326,0.5095,5.2837,55.75190194,48.74349439,1.52999997,
12.967482,0.2326,0.5095,5.2837,55.75190194,48.74349439,1.52999997,
12.986304,0.2326,0.5095,5.2837,55.75190194,48.74349439,1.52999997,
12.988195,0.6952,1.4962,3.3801,55.75190194,48.74349439,1.52999997,
13.006106,0.6952,1.4962,3.3801,55.75190194,48.74349439,1.52999997,
13.026948,0.6952,1.4962,3.3801,55.75190194,48.74349439,1.52999997,
13.028565,0.6952,1.4962,3.3801,55.75190194,48.74349439,1.52999997,
13.044844,0.6952,1.4962,3.3801,55.75190194,48.74349439,1.52999997,
13.045385,-0.0443,-0.7803,2.6693,55.75190194,48.74349439,1.52999997,
13.065002,-0.0443,-0.7803,2.6693,55.75190194,48.74349439,1.52999997,
13.095232,-0.0443,-0.7803,2.6693,55.75190194,48.74349439,1.52999997,
13.096446,-0.0443,-0.7803,2.6693,55.75190194,48.74349439,1.52999997,
13.115210,-0.0443,-0.7803,2.6693,55.75190194,48.74349439,1.52999997,
13.116342,0.3300,-1.2875,-0.5325,55.75190194,48.74349439,1.52999997,
13.134867,0.3300,-1.2875,-0.5325,55.75190194,48.74349439,1.52999997,
13.154308,0.3300,-1.2875,-0.5325,55.75190194,48.74349439,1.52999997,
13.173995,0.3300,-1.2875,-0.5325,55.75190194,48.74349439,1.52999997,
13.175565,0.3300,-1.2875,-0.5325,55.75190194,48.74349439,1.52999997,
13.193988,0.3300,-1.2875,-0.5325,55.75190194,48.74349439,1.52999997,
13.195346,-0.4421,-1.4931,-1.2704,55.75190194,48.74349439,1.52999997,
13.213481,-0.4421,-1.4931,-1.2704,55.75190194,48.74349439,1.52999997,
13.232817,-0.4421,-1.4931,-1.2704,55.75190194,48.74349439,1.52999997,
13.233251,-0.4421,-1.4931,-1.2704,55.75190194,48.74349439,1.52999997,
13.253155,-0.4421,-1.4931,-1.2704,55.75190194,48.74349439,1.52999997,
13.253762,0.2042,0.0295,-4.5512,55.75190194,48.74349439,1.52999997,
13.273015,0.2042,0.0295,-4.5512,55.75190194,48.74349439,1.52999997,
13.292787,0.2042,0.0295,-4.5512,55.75190194,48.74349439,1.52999997,
13.312942,0.2042,0.0295,-4.5512,55.75190194,48.74349439,1.52999997,
13.314195,0.2042,0.0295,-4.5512,55.75190194,48.74349439,1.52999997,
13.329397,0.2042,0.0295,-4.5512,55.75190194,48.74349439,1.52999997,
13.330875,0.9755,0.5322,-2.9637,55.75190194,48.74349439,1.52999997,
13.341912,0.9755,0.5322,-2.9637,55.75190194,48.74349439,1.52999997,
13.360979,0.9755,0.5322,-2.9637,55.75190194,48.74349439,1.52999997,
13.381143,0.9755,0.5322,-2.9637,55.75190194,48.74349439,1.52999997,
13.382693,0.9755,0.5322,-2.9637,55.75190194,48.74349439,1.52999997,
13.401261,0.9755,0.5322,-2.9637,55.75190194,48.74349439,1.52999997,
13.403215,-0.4677,1.0447,1.2129,55.75190194,48.74349439,1.52999997,
13.420378,-0.4677,1.0447,1.2129,55.75190194,48.74349439,1.52999997,
13.441184,-0.4677,1.0447,1.2129,55.75190194,48.74349439,1.52999997,
13.442769,-0.4677,1.0447,1.2129,55.75190194,48.74349439,1.52999997,
13.460653,-0.4677,1.0447,1.2129,55.75190194,48.74349439,1.52999997,
13.462084,-0.5273,1.1255,2.8850,55.75190194,48.74349439,1.52999997,
13.481528,-0.5273,1.1255,2.8850,55.75190194,48.74349439,1.52999997,
13.501161,-0.5273,1.1255,2.8850,55.75190194,48.74349439,1.52999997,
13.519580,-0.5273,1.1255,2.8850,55.75190194,48.74349439,1.52999997,
13.520383,-0.5273,1.1255,2.8850,55.75190194,48.74349439,1.52999997,
13.540138,-0.5273,1.1255,2.8850,55.75190194,48.74349439,1.52999997,
13.541283,0.0655,1.9149,1.1346,55.75190194,48.74349439,1.52999997,
13.559768,0.0655,1.9149,1.1346,55.75190194,48.74349439,1.52999997,
13.582105,0.0655,1.9149,1.1346,55.75190194,48.74349439,1.52999997,
13.582985,0.0655,1.9149,1.1346,55.75190194,48.74349439,1.52999997,
13.599114,0.5587,-2.8710,2.7994,55.75190194,48.74349439,1.52999997,
13.601469,0.5587,-2.8710,2.7994,55.75190194,48.74349439,1.52999997,
13.618640,0.5587,-2.8710,2.7994,55.75190194,48.74349439,1.52999997,
13.637198,0.5587,-2.8710,2.7994,55.75190194,48.74349439,1.52999997,
13.658603,0.5587,-2.8710,2.7994,55.75190194,48.74349439,1.52999997,
13.661018,0.5587,-2.8710,2.7994,55.75190194,48.74349439,1.52999997,
13.679301,-0.7908,0.1164,-2.2067,55.75190194,48.74349439,1.52999997,
13.680145,-0.7908,0.1164,-2.2067,55.75190194,48.74349439,1.52999997,
13.698971,-0.7908,0.1164,-2.2067,55.75190194,48.74349439,1.52999997,
13.717465,-0.7908,0.1164,-2.2067,55.75190194,48.74349439,1.52999997,
13.719362,-0.7908,0.1164,-2.2067,55.75190194,48.74349439,1.52999997,
13.737932,-0.7908,0.1164,-2.2067,55.75190194,48.74349439,1.52999997,
13.738899,-0.1046,0.2998,-4.0339,55.75190194,48.74349439,1.52999997,
13.756305,-0.1046,0.2998,-4.0339,55.75190194,48.74349439,1.52999997,
13.775512,-0.1046,0.2998,-4.0339,55.75190194,48.74349439,1.52999997,
13.796446,-0.1046,0.2998,-4.0339,55.75190194,48.74349439,1.52999997,
13.798247,-0.1046,0.2998,-4.0339,55.75190194,48.74349439,1.52999997,
13.816867,-0.1046,0.2998,-4.0339,55.75190194,48.74349439,1.52999997,
13.818836,1.1833,-1.3705,-1.9243,55.75190194,48.74349439,1.52999997,
13.848509,1.1833,-1.3705,-1.9243,55.75190194,48.74349439,1.52999997,
13.866130,1.1833,-1.3705,-1.9243,55.75190194,48.74349439,1.52999997,
13.867036,1.1833,-1.3705,-1.9243,55.75188968,48.74350678,1.54999995,
13.884849,0.7421,0.8990,-1.7466,55.75188968,48.74350678,1.54999995,
13.885718,0.7421,0.8990,-1.7466,55.75188968,48.74350678,1.54999995,
13.904531,0.7421,0.8990,-1.7466,55.75188968,48.74350678,1.54999995,
13.926310,0.7421,0.8990,-1.7466,55.75188968,48.74350678,1.54999995,
13.927341,0.7421,0.8990,-1.7466,55.75188968,48.74350678,1.54999995,
13.946918,0.7421,0.8990,-1.7466,55.75188968,48.74350678,1.54999995,
13.948641,0.7735,0.9655,5.7097,55.75188968,48.74350678,1.54999995,
13.964276,0.7735,0.9655,5.7097,55.75188968,48.74350678,1.54999995,
13.984677,0.7735,0.9655,5.7097,55.75188968,48.74350678,1.54999995,
14.004503,0.7735,0.9655,5.7097,55.75188968,48.74350678,1.54999995,
14.005299,0.7735,0.9655,5.7097,55.75188968,48.74350678,1.54999995,
14.022926,0.7735,0.9655,5.7097,55.75188968,48.74350678,1.54999995,
14.023694,0.3394,1.8118,4.4729,55.75188968,48.74350678,1.54999995,
14.043808,0.3394,1.8118,4.4729,55.75188968,48.74350678,1.54999995,
14.063364,0.3394,1.8118,4.4729,55.75188968,48.74350678,1.54999995,
14.064859,0.3394,1.8118,4.4729,55.75188968,48.74350678,1.54999995,
14.082146,0.3394,1.8118,4.4729,55.75188968,48.74350678,1.54999995,
14.092298,0.3394,1.8118,4.4729,55.75188968,48.74350678,1.54999995,
14.093141,0.9458,-1.7323,2.4946,55.75188968,48.74350678,1.54999995,
14.114087,0.9458,-1.7323,2.4946,55.75188968,48.74350678,1.54999995,
14.132109,0.9458,-1.7323,2.4946,55.75188968,48.74350678,1.54999995,
14.133346,0.9458,-1.7323,2.4946,55.75188968,48.74350678,1.54999995,
14.153038,0.9458,-1.7323,2.4946,55.75188968,48.74350678,1.54999995,
14.154330,0.8930,-1.2481,-2.3201,55.75188968,48.74350678,1.54999995,
14.172018,0.8930,-1.2481,-2.3201,55.75188968,48.74350678,1.54999995,
14.191311,0.8930,-1.2481,-2.3201,55.75188968,48.74350678,1.54999995,
14.212869,0.8930,-1.2481,-2.3201,55.75188968,48.74350678,1.54999995,
14.214055,0.8930,-1.2481,-2.3201,55.75188968,48.74350678,1.54999995,
14.231690,0.8930,-1.2481,-2.3201,55.75188968,48.74350678,1.54999995,
14.232944,-0.1774,-1.2384,-3.9438,55.75188968,48.74350678,1.54999995,
14.252666,-0.1774,-1.2384,-3.9438,55.75188968,48.74350678,1.54999995,
14.270792,-0.1774,-1.2384,-3.9438,55.75188968,48.74350678,1.54999995,
14.272967,-0.1774,-1.2384,-3.9438,55.75188968,48.74350678,1.54999995,
14.292290,-0.1774,-1.2384,-3.9438,55.75188968,48.74350678,1.54999995,
14.293120,-0.6552,-1.7214,-2.1295,55.75188968,48.74350678,1.54999995,
14.310869,-0.6552,-1.7214,-2.1295,55.75188968,48.74350678,1.54999995,
14.339342,-0.6552,-1.7214,-2.1295,55.75188968,48.74350678,1.54999995,
14.340938,-0.6552,-1.7214,-2.1295,55.75188968,48.74350678,1.54999995,
14.358725,-0.6552,-1.7214,-2.1295,55.75188968,48.74350678,1.54999995,
14.359945,-0.0509,0.7943,-2.6572,55.75188968,48.74350678,1.54999995,
14.379093,-0.0509,0.7943,-2.6572,55.75188968,48.74350678,1.54999995,
14.398471,-0.0509,0.7943,-2.6572,55.75188968,48.74350678,1.54999995,
14.419328,-0.0509,0.7943,-2.6572,55.75188968,48.74350678,1.54999995,
14.420384,-0.0509,0.7943,-2.6572,55.75188968,48.74350678,1.54999995,
14.438900,-0.0509,0.7943,-2.6572,55.75188968,48.74350678,1.54999995,
14.439674,0.0741,0.1957,2.4135,55.75188968,48.74350678,1.54999995,
14.459017,0.0741,0.1957,2.4135,55.75188968,48.74350678,1.54999995,
14.479814,0.0741,0.1957,2.4135,55.75188968,48.74350678,1.54999995,
14.480555,0.0741,0.1957,2.4135,55.75188968,48.74350678,1.54999995,
14.499564,0.0741,0.1957,2.4135,55.75188968,48.74350678,1.54999995,
14.501768,-1.2301,1.1907,1.9270,55.75188968,48.74350678,1.54999995,
14.516480,-1.2301,1.1907,1.9270,55.75188968,48.74350678,1.54999995,
14.537487,-1.2301,1.1907,1.9270,55.75188968,48.74350678,1.54999995,
14.556173,-1.2301,1.1907,1.9270,55.75188968,48.74350678,1.54999995,
14.557107,-1.2301,1.1907,1.9270,55.75188968,48.74350678,1.54999995,
14.577038,-1.2301,1.1907,1.9270,55.75188968,48.74350678,1.54999995,
14.579180,-1.4873,2.0459,-0.5424,55.75188968,48.74350678,1.54999995,
14.596798,-1.4873,2.0459,-0.5424,55.75188968,48.74350678,1.54999995,
14.618075,-1.4873,2.0459,-0.5424,55.75188968,48.74350678,1.54999995,
14.618960,-1.4873,2.0459,-0.5424,55.75188968,48.74350678,1.54999995,
14.636886,-0.6930,-1.7310,2.7330,55.75188968,48.74350678,1.54999995,
14.638150,-0.6930,-1.7310,2.7330,55.75188968,48.74350678,1.54999995,
14.654821,-0.6930,-1.7310,2.7330,55.75188968,48.74350678,1.54999995,
14.675862,-0.6930,-1.7310,2.7330,55.75188968,48.74350678,1.54999995,
14.694718,-0.6930,-1.7310,2.7330,55.75188968,48.74350678,1.54999995,
14.695847,-0.6930,-1.7310,2.7330,55.75188968,48.74350678,1.54999995,
14.714378,-0.6930,-1.7310,2.7330,55.75188968,48.74350678,1.54999995,
14.714856,-0.5549,-0.0614,-0.0377,55.75188968,48.74350678,1.54999995,
14.733684,-0.5549,-0.0614,-0.0377,55.75188968,48.74350678,1.54999995,
14.755602,-0.5549,-0.0614,-0.0377,55.75188968,48.74350678,1.54999995,
14.756602,-0.5549,-0.0614,-0.0377,55.75188968,48.74350678,1.54999995,
14.773387,-0.5549,-0.0614,-0.0377,55.75188968,48.74350678,1.54999995,
14.774353,0.3876,-0.4149,-2.3679,55.75188968,48.74350678,1.54999995,
14.794780,0.3876,-0.4149,-2.3679,55.75188968,48.74350678,1.54999995,
14.813373,0.3876,-0.4149,-2.3679,55.75188968,48.74350678,1.54999995,
14.829949,0.3876,-0.4149,-2.3679,55.75188968,48.74350678,1.54999995,
14.830491,0.3876,-0.4149,-2.3679,55.75188968,48.74350678,1.54999995,
14.842861,0.3876,-0.4149,-2.3679,55.75188968,48.74350678,1.54999995,
14.844070,0.4530,-0.5345,-1.6864,55.75188968,48.74350678,1.54999995,
14.863771,0.4530,-0.5345,-1.6864,55.75188968,48.74350678,1.54999995,
14.884520,0.4530,-0.5345,-1.6864,55.75187638,48.74351836,1.58000004,
14.903542,0.4530,-0.5345,-1.6864,55.75187638,48.74351836,1.58000004,
14.906038,0.4530,-0.5345,-1.6864,55.75187638,48.74351836,1.58000004,
14.923059,0.4530,-0.5345,-1.6864,55.75187638,48.74351836,1.58000004,
14.923698,-0.2378,1.3544,-2.3780,55.75187638,48.74351836,1.58000004,
14.943097,-0.2378,1.3544,-2.3780,55.75187638,48.74351836,1.58000004,
14.961341,-0.2378,1.3544,-2.3780,55.75187638,48.74351836,1.58000004,
14.962771,-0.2378,1.3544,-2.3780,55.75187638,48.74351836,1.58000004,
14.982110,-0.2378,1.3544,-2.3780,55.75187638,48.74351836,1.58000004,
14.984289,0.6573,0.8850,2.4585,55.75187638,48.74351836,1.58000004,
14.999849,0.6573,0.8850,2.4585,55.75187638,48.74351836,1.58000004,
15.023881,0.6573,0.8850,2.4585,55.75187638,48.74351836,1.58000004,
15.039850,0.6573,0.8850,2.4585,55.75187638,48.74351836,1.58000004,
15.040692,0.6573,0.8850,2.4585,55.75187638,48.74351836,1.58000004,
15.059876,0.6573,0.8850,2.4585,55.75187638,48.74351836,1.58000004,
15.060950,1.9877,-0.1493,4.0523,55.75187638,48.74351836,1.58000004,
15.089914,1.9877,-0.1493,4.0523,55.75187638,48.74351836,1.58000004,
15.108693,1.9877,-0.1493,4.0523,55.75187638,48.74351836,1.58000004,
15.109891,1.9877,-0.1493,4.0523,55.75187638,48.74351836,1.58000004,
15.130110,0.3562,-1.6294,3.9034,55.75187638,48.74351836,1.58000004,
15.131467,0.3562,-1.6294,3.9034,55.75187638,48.74351836,1.58000004,
15.150269,0.3562,-1.6294,3.9034,55.75187638,48.74351836,1.58000004,
15.170736,0.3562,-1.6294,3.9034,55.75187638,48.74351836,1.58000004,
15.171610,0.3562,-1.6294,3.9034,55.75187638,48.74351836,1.58000004,
15.189370,0.3562,-1.6294,3.9034,55.75187638,48.74351836,1.58000004,
15.190373,-0.2597,0.1379,-2.0354,55.75187638,48.74351836,1.58000004,
15.208549,-0.2597,0.1379,-2.0354,55.75187638,48.74351836,1.58000004,
15.227516,-0.2597,0.1379,-2.0354,55.75187638,48.74351836,1.58000004,
15.247555,-0.2597,0.1379,-2.0354,55.75187638,48.74351836,1.58000004,
15.248694,-0.2597,0.1379,-2.0354,55.75187638,48.74351836,1.58000004,
15.269041,-0.2597,0.1379,-2.0354,55.75187638,48.74351836,1.58000004,
15.270135,-0.9754,-0.1812,-2.1484,55.75187638,48.74351836,1.58000004,
15.287542,-0.9754,-0.1812,-2.1484,55.75187638,48.74351836,1.58000004,
15.308585,-0.9754,-0.1812,-2.1484,55.75187638,48.74351836,1.58000004,
15.309357,-0.9754,-0.1812,-2.1484,55.75187638,48.74351836,1.58000004,
15.327438,-0.1558,-0.4978,-3.7796,55.75187638,48.74351836,1.58000004,
15.329260,-0.1558,-0.4978,-3.7796,55.75187638,48.74351836,1.58000004,
15.346456,-0.1558,-0.4978,-3.7796,55.75187638,48.74351836,1.58000004,
15.365971,-0.1558,-0.4978,-3.7796,55.75187638,48.74351836,1.58000004,
15.386562,-0.1558,-0.4978,-3.7796,55.75187638,48.74351836,1.58000004,
15.387523,-0.1558,-0.4978,-3.7796,55.75187638,48.74351836,1.58000004,
15.405905,-0.1558,-0.4978,-3.7796,55.75187638,48.74351836,1.58000004,
15.407083,0.6848,0.2396,-3.2870,55.75187638,48.74351836,1.58000004,
15.424936,0.6848,0.2396,-3.2870,55.75187638,48.74351836,1.58000004,
15.445362,0.6848,0.2396,-3.2870,55.75187638,48.74351836,1.58000004,
15.446888,0.6848,0.2396,-3.2870,55.75187638,48.74351836,1.58000004,
15.465943,0.6848,0.2396,-3.2870,55.75187638,48.74351836,1.58000004,
15.466987,-0.0280,0.1182,0.7451,55.75187638,48.74351836,1.58000004,
15.484139,-0.0280,0.1182,0.7451,55.75187638,48.74351836,1.58000004,
15.504634,-0.0280,0.1182,0.7451,55.75187638,48.74351836,1.58000004,
15.524773,-0.0280,0.1182,0.7451,55.75187638,48.74351836,1.58000004,
15.526356,-0.0280,0.1182,0.7451,55.75187638,48.74351836,1.58000004,
15.543658,0.1511,0.6226,2.0796,55.75187638,48.74351836,1.58000004,
15.544834,0.1511,0.6226,2.0796,55.75187638,48.74351836,1.58000004,
15.564349,0.1511,0.6226,2.0796,55.75187638,48.74351836,1.58000004,
15.579559,0.1511,0.6226,2.0796,55.75187638,48.74351836,1.58000004,
15.593770,0.1511,0.6226,2.0796,55.75187638,48.74351836,1.58000004,
15.594773,0.1511,0.6226,2.0796,55.75187638,48.74351836,1.58000004,
15.614632,-0.0963,1.7480,2.2923,55.75187638,48.74351836,1.58000004,
15.615782,-0.0963,1.7480,2.2923,55.75187638,48.74351836,1.58000004,
15.633688,-0.0963,1.7480,2.2923,55.75187638,48.74351836,1.58000004,
15.655666,-0.0963,1.7480,2.2923,55.75187638,48.74351836,1.58000004,
15.656496,-0.0963,1.7480,2.2923,55.75187638,48.74351836,1.58000004,
15.673222,-0.0963,1.7480,2.2923,55.75187638,48.74351836,1.58000004,
15.674479,-0.7446,-1.4269,3.9499,55.75187638,48.74351836,1.58000004,
15.693037,-0.7446,-1.4269,3.9499,55.75187638,48.74351836,1.58000004,
15.712713,-0.7446,-1.4269,3.9499,55.75187638,48.74351836,1.58000004,
15.732271,-0.7446,-1.4269,3.9499,55.75187638,48.74351836,1.58000004,
15.734568,-0.7446,-1.4269,3.9499,55.75187638,48.74351836,1.58000004,
15.752572,-0.7446,-1.4269,3.9499,55.75187638,48.74351836,1.58000004,
15.753950,-0.4150,-0.3344,-2.6995,55.75187638,48.74351836,1.58000004,
15.772746,-0.4150,-0.3344,-2.6995,55.75187638,48.74351836,1.58000004,
15.791434,-0.4150,-0.3344,-2.6995,55.75187638,48.74351836,1.58000004,
15.792108,-0.4150,-0.3344,-2.6995,55.75187638,48.74351836,1.58000004,
15.810566,-0.4150,-0.3344,-2.6995,55.75187638,48.74351836,1.58000004,
15.811584,-0.0885,-0.2276,-2.5341,55.75187638,48.74351836,1.58000004,
15.843248,-0.0885,-0.2276,-2.5341,55.75187638,48.74351836,1.58000004,
15.861486,-0.0885,-0.2276,-2.5341,55.75187638,48.74351836,1.58000004,
15.862773,-0.0885,-0.2276,-2.5341,55.75187638,48.74351836,1.58000004,
15.879664,-0.0885,-0.2276,-2.5341,55.75187638,48.74351836,1.58000004,
15.880117,0.1926,0.3191,-3.0397,55.75186394,48.74352923,1.53999996,
15.899252,0.1926,0.3191,-3.0397,55.75186394,48.74352923,1.53999996,
15.919122,0.1926,0.3191,-3.0397,55.75186394,48.74352923,1.53999996,
15.939291,0.1926,0.3191,-3.0397,55.75186394,48.74352923,1.53999996,
15.941008,0.1926,0.3191,-3.0397,55.75186394,48.74352923,1.53999996,
15.958757,0.1926,0.3191,-3.0397,55.75186394,48.74352923,1.53999996,
15.959837,-0.4093,1.0061,-1.0284,55.75186394,48.74352923,1.53999996,
15.978328,-0.4093,1.0061,-1.0284,55.75186394,48.74352923,1.53999996,
15.999742,-0.4093,1.0061,-1.0284,55.75186394,48.74352923,1.53999996,
16.000612,-0.4093,1.0061,-1.0284,55.75186394,48.74352923,1.53999996,
16.018828,-0.4093,1.0061,-1.0284,55.75186394,48.74352923,1.53999996,
16.019629,0.2629,0.2320,2.7981,55.75186394,48.74352923,1.53999996,
16.038560,0.2629,0.2320,2.7981,55.75186394,48.74352923,1.53999996,
16.056777,0.2629,0.2320,2.7981,55.75186394,48.74352923,1.53999996,
16.080714,0.2629,0.2320,2.7981,55.75186394,48.74352923,1.53999996,
16.083324,0.2629,0.2320,2.7981,55.75186394,48.74352923,1.53999996,
16.096613,0.2629,0.2320,2.7981,55.75186394,48.74352923,1.53999996,
16.097476,0.7920,0.5507,4.7690,55.75186394,48.74352923,1.53999996,
16.117002,0.7920,0.5507,4.7690,55.75186394,48.74352923,1.53999996,
16.136744,0.7920,0.5507,4.7690,55.75186394,48.74352923,1.53999996,
16.138809,0.7920,0.5507,4.7690,55.75186394,48.74352923,1.53999996,
16.156867,0.7920,0.5507,4.7690,55.75186394,48.74352923,1.53999996,
16.158546,1.3127,-0.2496,2.7758,55.75186394,48.74352923,1.53999996,
16.176247,1.3127,-0.2496,2.7758,55.75186394,48.74352923,1.53999996,
16.196604,1.3127,-0.2496,2.7758,55.75186394,48.74352923,1.53999996,
16.215800,1.3127,-0.2496,2.7758,55.75186394,48.74352923,1.53999996,
16.216517,1.3127,-0.2496,2.7758,55.75186394,48.74352923,1.53999996,
16.236191,1.3127,-0.2496,2.7758,55.75186394,48.74352923,1.53999996,
16.237032,0.4816,-0.7366,0.4267,55.75186394,48.74352923,1.53999996,
16.254434,0.4816,-0.7366,0.4267,55.75186394,48.74352923,1.53999996,
16.275736,0.4816,-0.7366,0.4267,55.75186394,48.74352923,1.53999996,
16.277942,0.4816,-0.7366,0.4267,55.75186394,48.74352923,1.53999996,
16.294650,0.4816,-0.7366,0.4267,55.75186394,48.74352923,1.53999996,
16.295367,-1.2447,-0.6139,-2.4991,55.75186394,48.74352923,1.53999996,
16.314021,-1.2447,-0.6139,-2.4991,55.75186394,48.74352923,1.53999996,
16.328907,-1.2447,-0.6139,-2.4991,55.75186394,48.74352923,1.53999996,
16.344651,-1.2447,-0.6139,-2.4991,55.75186394,48.74352923,1.53999996,
16.346163,-1.2447,-0.6139,-2.4991,55.75186394,48.74352923,1.53999996,
16.364238,-1.2447,-0.6139,-2.4991,55.75186394,48.74352923,1.53999996,
16.364839,-0.6167,-0.2428,-5.1249,55.75186394,48.74352923,1.53999996,
16.384917,-0.6167,-0.2428,-5.1249,55.75186394,48.74352923,1.53999996,
16.402980,-0.6167,-0.2428,-5.1249,55.75186394,48.74352923,1.53999996,
16.422834,-0.6167,-0.2428,-5.1249,55.75186394,48.74352923,1.53999996,
16.424050,-0.6167,-0.2428,-5.1249,55.75186394,48.74352923,1.53999996,
16.443199,0.5610,-0.7924,-2.6032,55.75186394,48.74352923,1.53999996,
16.445780,0.5610,-0.7924,-2.6032,55.75186394,48.74352923,1.53999996,
16.462884,0.5610,-0.7924,-2.6032,55.75186394,48.74352923,1.53999996,
16.482576,0.5610,-0.7924,-2.6032,55.75186394,48.74352923,1.53999996,
16.483183,0.5610,-0.7924,-2.6032,55.75186394,48.74352923,1.53999996,
16.502818,0.5610,-0.7924,-2.6032,55.75186394,48.74352923,1.53999996,
16.503663,0.4633,-0.2141,0.0971,55.75186394,48.74352923,1.53999996,
16.521415,0.4633,-0.2141,0.0971,55.75186394,48.74352923,1.53999996,
16.542086,0.4633,-0.2141,0.0971,55.75186394,48.74352923,1.53999996,
16.560453,0.4633,-0.2141,0.0971,55.75186394,48.74352923,1.53999996,
16.562102,0.4633,-0.2141,0.0971,55.75186394,48.74352923,1.53999996,
16.580382,0.0371,0.3539,1.0454,55.75186394,48.74352923,1.53999996,
16.594142,0.0371,0.3539,1.0454,55.75186394,48.74352923,1.53999996,
16.611724,0.0371,0.3539,1.0454,55.75186394,48.74352923,1.53999996,
16.631317,0.0371,0.3539,1.0454,55.75186394,48.74352923,1.53999996,
16.633255,0.0371,0.3539,1.0454,55.75186394,48.74352923,1.53999996,
16.649437,0.0371,0.3539,1.0454,55.75186394,48.74352923,1.53999996,
16.650315,-0.0946,0.8423,2.6639,55.75186394,48.74352923,1.53999996,
16.670299,-0.0946,0.8423,2.6639,55.75186394,48.74352923,1.53999996,
16.689437,-0.0946,0.8423,2.6639,55.75186394,48.74352923,1.53999996,
16.690932,-0.0946,0.8423,2.6639,55.75186394,48.74352923,1.53999996,
16.710189,-0.9579,-0.1465,4.6698,55.75186394,48.74352923,1.53999996,
16.712221,-0.9579,-0.1465,4.6698,55.75186394,48.74352923,1.53999996,
16.730854,-0.9579,-0.1465,4.6698,55.75186394,48.74352923,1.53999996,
16.749037,-0.9579,-0.1465,4.6698,55.75186394,48.74352923,1.53999996,
16.769268,-0.9579,-0.1465,4.6698,55.75186394,48.74352923,1.53999996,
16.770266,-0.9579,-0.1465,4.6698,55.75186394,48.74352923,1.53999996,
16.787476,-0.9579,-0.1465,4.6698,55.75186394,48.74352923,1.53999996,
16.788316,-1.8144,1.6407,-1.2435,55.75186394,48.74352923,1.53999996,
16.807917,-1.8144,1.6407,-1.2435,55.75186394,48.74352923,1.53999996,
16.830072,-1.8144,1.6407,-1.2435,55.75186394,48.74352923,1.53999996,
16.830953,-1.8144,1.6407,-1.2435,55.75186394,48.74352923,1.53999996,
16.847921,0.0596,-0.2745,-2.9493,55.75186394,48.74352923,1.53999996,
16.848623,0.0596,-0.2745,-2.9493,55.75186394,48.74352923,1.53999996,
16.866581,0.0596,-0.2745,-2.9493,55.75186394,48.74352923,1.53999996,
16.886479,0.0596,-0.2745,-2.9493,55.75185028,48.74353693,1.54999995,
16.908092,0.0596,-0.2745,-2.9493,55.75185028,48.74353693,1.54999995,
16.908811,0.0596,-0.2745,-2.9493,55.75185028,48.74353693,1.54999995,
16.926225,0.0596,-0.2745,-2.9493,55.75185028,48.74353693,1.54999995,
16.926750,0.5241,-0.6171,-3.7200,55.75185028,48.74353693,1.54999995,
16.945378,0.5241,-0.6171,-3.7200,55.75185028,48.74353693,1.54999995,
16.966585,0.5241,-0.6171,-3.7200,55.75185028,48.74353693,1.54999995,
16.967424,0.5241,-0.6171,-3.7200,55.75185028,48.74353693,1.54999995,
16.986532,0.7191,0.3353,-0.4849,55.75185028,48.74353693,1.54999995,
16.987308,0.7191,0.3353,-0.4849,55.75185028,48.74353693,1.54999995,
17.006062,0.7191,0.3353,-0.4849,55.75185028,48.74353693,1.54999995,
17.025135,0.7191,0.3353,-0.4849,55.75185028,48.74353693,1.54999995,
17.046191,0.7191,0.3353,-0.4849,55.75185028,48.74353693,1.54999995,
17.047128,0.7191,0.3353,-0.4849,55.75185028,48.74353693,1.54999995,
17.065192,0.7191,0.3353,-0.4849,55.75185028,48.74353693,1.54999995,
17.066181,-0.4065,0.8940,3.4932,55.75185028,48.74353693,1.54999995,
17.082501,-0.4065,0.8940,3.4932,55.75185028,48.74353693,1.54999995,
17.093674,-0.4065,0.8940,3.4932,55.75185028,48.74353693,1.54999995,
17.114299,-0.4065,0.8940,3.4932,55.75185028,48.74353693,1.54999995,
17.116015,-0.4065,0.8940,3.4932,55.75185028,48.74353693,1.54999995,
17.134833,-0.4065,0.8940,3.4932,55.75185028,48.74353693,1.54999995,
17.135346,0.3649,0.6530,3.8992,55.75185028,48.74353693,1.54999995,
17.153370,0.3649,0.6530,3.8992,55.75185028,48.74353693,1.54999995,
17.174243,0.3649,0.6530,3.8992,55.75185028,48.74353693,1.54999995,
17.175068,0.3649,0.6530,3.8992,55.75185028,48.74353693,1.54999995,
17.194366,0.3649,0.6530,3.8992,55.75185028,48.74353693,1.54999995,
17.195163,0.4161,-1.2274,2.4800,55.75185028,48.74353693,1.54999995,
17.212245,0.4161,-1.2274,2.4800,55.75185028,48.74353693,1.54999995,
17.233040,0.4161,-1.2274,2.4800,55.75185028,48.74353693,1.54999995,
17.251693,0.4161,-1.2274,2.4800,55.75185028,48.74353693,1.54999995,
17.252735,0.4161,-1.2274,2.4800,55.75185028,48.74353693,1.54999995,
17.272199,1.1529,-0.8947,-0.8380,55.75185028,48.74353693,1.54999995,
17.274506,1.1529,-0.8947,-0.8380,55.75185028,48.74353693,1.54999995,
17.293872,1.1529,-0.8947,-0.8380,55.75185028,48.74353693,1.54999995,
17.313222,1.1529,-0.8947,-0.8380,55.75185028,48.74353693,1.54999995,
17.315444,1.1529,-0.8947,-0.8380,55.75185028,48.74353693,1.54999995,
17.342420,1.1529,-0.8947,-0.8380,55.75185028,48.74353693,1.54999995,
17.343388,-0.7184,-0.4864,-3.3669,55.75185028,48.74353693,1.54999995,
17.361484,-0.7184,-0.4864,-3.3669,55.75185028,48.74353693,1.54999995,
17.380945,-0.7184,-0.4864,-3.3669,55.75185028,48.74353693,1.54999995,
17.383425,-0.7184,-0.4864,-3.3669,55.75185028,48.74353693,1.54999995,
17.401183,-0.7184,-0.4864,-3.3669,55.75185028,48.74353693,1.54999995,
17.402202,-0.5126,-0.5575,-4.5551,55.75185028,48.74353693,1.54999995,
17.420022,-0.5126,-0.5575,-4.5551,55.75185028,48.74353693,1.54999995,
17.440170,-0.5126,-0.5575,-4.5551,55.75185028,48.74353693,1.54999995,
17.459385,-0.5126,-0.5575,-4.5551,55.75185028,48.74353693,1.54999995,
17.460624,-0.5126,-0.5575,-4.5551,55.75185028,48.74353693,1.54999995,
17.480010,0.8170,-0.1033,-1.7255,55.75185028,48.74353693,1.54999995,
17.481126,0.8170,-0.1033,-1.7255,55.75185028,48.74353693,1.54999995,
17.499676,0.8170,-0.1033,-1.7255,55.75185028,48.74353693,1.54999995,
17.518841,0.8170,-0.1033,-1.7255,55.75185028,48.74353693,1.54999995,
17.519945,0.8170,-0.1033,-1.7255,55.75185028,48.74353693,1.54999995,
17.537985,0.8170,-0.1033,-1.7255,55.75185028,48.74353693,1.54999995,
17.538856,0.1373,0.3008,1.9198,55.75185028,48.74353693,1.54999995,
17.558227,0.1373,0.3008,1.9198,55.75185028,48.74353693,1.54999995,
17.580404,0.1373,0.3008,1.9198,55.75185028,48.74353693,1.54999995,
17.597276,0.1373,0.3008,1.9198,55.75185028,48.74353693,1.54999995,
17.598583,0.1373,0.3008,1.9198,55.75185028,48.74353693,1.54999995,
17.618002,0.5379,0.4478,3.3702,55.75185028,48.74353693,1.54999995,
17.619674,0.5379,0.4478,3.3702,55.75185028,48.74353693,1.54999995,
17.638120,0.5379,0.4478,3.3702,55.75185028,48.74353693,1.54999995,
17.657088,0.5379,0.4478,3.3702,55.75185028,48.74353693,1.54999995,
17.659007,0.5379,0.4478,3.3702,55.75185028,48.74353693,1.54999995,
17.678012,0.5379,0.4478,3.3702,55.75185028,48.74353693,1.54999995,
17.678978,0.3473,0.9841,1.1766,55.75185028,48.74353693,1.54999995,
17.699214,0.3473,0.9841,1.1766,55.75185028,48.74353693,1.54999995,
17.716409,0.3473,0.9841,1.1766,55.75185028,48.74353693,1.54999995,
17.737836,0.3473,0.9841,1.1766,55.75185028,48.74353693,1.54999995,
17.739034,0.3473,0.9841,1.1766,55.75185028,48.74353693,1.54999995,
17.757276,0.3473,0.9841,1.1766,55.75185028,48.74353693,1.54999995,
17.758381,-0.4606,-0.5323,2.6649,55.75185028,48.74353693,1.54999995,
17.774814,-0.4606,-0.5323,2.6649,55.75185028,48.74353693,1.54999995,
17.796897,-0.4606,-0.5323,2.6649,55.75185028,48.74353693,1.54999995,
17.799148,-0.4606,-0.5323,2.6649,55.75185028,48.74353693,1.54999995,
17.814970,-0.4606,-0.5323,2.6649,55.75185028,48.74353693,1.54999995,
17.816688,-1.1994,0.7855,-2.3657,55.75185028,48.74353693,1.54999995,
17.833307,-1.1994,0.7855,-2.3657,55.75185028,48.74353693,1.54999995,
17.844092,-1.1994,0.7855,-2.3657,55.75185028,48.74353693,1.54999995,
17.867385,-1.1994,0.7855,-2.3657,55.75185028,48.74353693,1.54999995,
17.868907,-1.1994,0.7855,-2.3657,55.75183760,48.74354581,1.53999996,
17.883943,-1.1994,0.7855,-2.3657,55.75183760,48.74354581,1.53999996,
17.884744,0.2013,-0.2646,-2.7860,55.75183760,48.74354581,1.53999996,
17.903930,0.2013,-0.2646,-2.7860,55.75183760,48.74354581,1.53999996,
17.923414,0.2013,-0.2646,-2.7860,55.75183760,48.74354581,1.53999996,
17.943707,0.2013,-0.2646,-2.7860,55.75183760,48.74354581,1.53999996,
17.944522,0.2013,-0.2646,-2.7860,55.75183760,48.74354581,1.53999996,
17.963963,0.2013,-0.2646,-2.7860,55.75183760,48.74354581,1.53999996,
17.966476,0.7690,-0.3591,-2.7847,55.75183760,48.74354581,1.53999996,
17.983646,0.7690,-0.3591,-2.7847,55.75183760,48.74354581,1.53999996,
18.004465,0.7690,-0.3591,-2.7847,55.75183760,48.74354581,1.53999996,
18.006349,0.7690,-0.3591,-2.7847,55.75183760,48.74354581,1.53999996,
18.023068,0.7690,-0.3591,-2.7847,55.75183760,48.74354581,1.53999996,
18.023658,0.5211,0.3832,-0.0101,55.75183760,48.74354581,1.53999996,
18.042137,0.5211,0.3832,-0.0101,55.75183760,48.74354581,1.53999996,
18.063028,0.5211,0.3832,-0.0101,55.75183760,48.74354581,1.53999996,
18.079977,0.5211,0.3832,-0.0101,55.75183760,48.74354581,1.53999996,
18.093173,0.5211,0.3832,-0.0101,55.75183760,48.74354581,1.53999996,
18.095363,-0.6077,0.6655,2.5277,55.75183760,48.74354581,1.53999996,
18.112868,-0.6077,0.6655,2.5277,55.75183760,48.74354581,1.53999996,
18.131115,-0.6077,0.6655,2.5277,55.75183760,48.74354581,1.53999996,
18.150367,-0.6077,0.6655,2.5277,55.75183760,48.74354581,1.53999996,
18.151962,-0.6077,0.6655,2.5277,55.75183760,48.74354581,1.53999996,
18.172171,-0.0663,0.2959,3.7671,55.75183760,48.74354581,1.53999996,
18.174319,-0.0663,0.2959,3.7671,55.75183760,48.74354581,1.53999996,
18.191794,-0.0663,0.2959,3.7671,55.75183760,48.74354581,1.53999996,
18.209920,-0.0663,0.2959,3.7671,55.75183760,48.74354581,1.53999996,
18.210956,-0.0663,0.2959,3.7671,55.75183760,48.74354581,1.53999996,
18.230445,-0.0663,0.2959,3.7671,55.75183760,48.74354581,1.53999996,
18.231148,0.6677,-0.8538,1.9603,55.75183760,48.74354581,1.53999996,
18.251260,0.6677,-0.8538,1.9603,55.75183760,48.74354581,1.53999996,
18.269335,0.6677,-0.8538,1.9603,55.75183760,48.74354581,1.53999996,
18.289943,0.6677,-0.8538,1.9603,55.75183760,48.74354581,1.53999996,
18.291103,0.6677,-0.8538,1.9603,55.75183760,48.74354581,1.53999996,
18.309325,-0.0359,0.2318,-0.4881,55.75183760,48.74354581,1.53999996,
18.310568,-0.0359,0.2318,-0.4881,55.75183760,48.74354581,1.53999996,
18.328727,-0.0359,0.2318,-0.4881,55.75183760,48.74354581,1.53999996,
18.348503,-0.0359,0.2318,-0.4881,55.75183760,48.74354581,1.53999996,
18.350412,-0.0359,0.2318,-0.4881,55.75183760,48.74354581,1.53999996,
18.367863,-0.0359,0.2318,-0.4881,55.75183760,48.74354581,1.53999996,
18.369183,-0.1096,0.2534,-2.8458,55.75183760,48.74354581,1.53999996,
18.390112,-0.1096,0.2534,-2.8458,55.75183760,48.74354581,1.53999996,
18.408433,-0.1096,0.2534,-2.8458,55.75183760,48.74354581,1.53999996,
18.426758,-0.1096,0.2534,-2.8458,55.75183760,48.74354581,1.53999996,
18.427360,-0.1096,0.2534,-2.8458,55.75183760,48.74354581,1.53999996,
18.447698,-0.1096,0.2534,-2.8458,55.75183760,48.74354581,1.53999996,
18.450926,-0.0220,-0.4942,-2.4944,55.75183760,48.74354581,1.53999996,
18.466962,-0.0220,-0.4942,-2.4944,55.75183760,48.74354581,1.53999996,
18.486890,-0.0220,-0.4942,-2.4944,55.75183760,48.74354581,1.53999996,
18.488544,-0.0220,-0.4942,-2.4944,55.75183760,48.74354581,1.53999996,
18.506794,-0.0220,-0.4942,-2.4944,55.75183760,48.74354581,1.53999996,
18.507641,0.4499,-0.0378,-3.1030,55.75183760,48.74354581,1.53999996,
18.526886,0.4499,-0.0378,-3.1030,55.75183760,48.74354581,1.53999996,
18.545490,0.4499,-0.0378,-3.1030,55.75183760,48.74354581,1.53999996,
18.565968,0.4499,-0.0378,-3.1030,55.75183760,48.74354581,1.53999996,
18.567073,0.4499,-0.0378,-3.1030,55.75183760,48.74354581,1.53999996,
18.581795,0.4499,-0.0378,-3.1030,55.75183760,48.74354581,1.53999996,
18.582735,-0.2370,0.2619,0.6431,55.75183760,48.74354581,1.53999996,
18.594846,-0.2370,0.2619,0.6431,55.75183760,48.74354581,1.53999996,
18.615661,-0.2370,0.2619,0.6431,55.75183760,48.74354581,1.53999996,
18.635918,-0.2370,0.2619,0.6431,55.75183760,48.74354581,1.53999996,
18.636803,-0.2370,0.2619,0.6431,55.75183760,48.74354581,1.53999996,
18.654613,-0.3656,-0.2412,2.6496,55.75183760,48.74354581,1.53999996,
18.655750,-0.3656,-0.2412,2.6496,55.75183760,48.74354581,1.53999996,
18.674556,-0.3656,-0.2412,2.6496,55.75183760,48.74354581,1.53999996,
18.693501,-0.3656,-0.2412,2.6496,55.75183760,48.74354581,1.53999996,
18.694665,-0.3656,-0.2412,2.6496,55.75183760,48.74354581,1.53999996,
18.713080,-0.3656,-0.2412,2.6496,55.75183760,48.74354581,1.53999996,
18.714448,-0.0539,0.3836,2.3745,55.75183760,48.74354581,1.53999996,
18.733443,-0.0539,0.3836,2.3745,55.75183760,48.74354581,1.53999996,
18.753378,-0.0539,0.3836,2.3745,55.75183760,48.74354581,1.53999996,
18.773493,-0.0539,0.3836,2.3745,55.75183760,48.74354581,1.53999996,
18.774638,-0.0539,0.3836,2.3745,55.75183760,48.74354581,1.53999996,
18.792034,-0.0539,0.3836,2.3745,55.75183760,48.74354581,1.53999996,
18.792903,-0.4403,-0.2109,3.8666,55.75183760,48.74354581,1.53999996,
18.812540,-0.4403,-0.2109,3.8666,55.75183760,48.74354581,1.53999996,
18.842733,-0.4403,-0.2109,3.8666,55.75183760,48.74354581,1.53999996,
18.843367,-0.4403,-0.2109,3.8666,55.75183760,48.74354581,1.53999996,
18.863660,-0.4403,-0.2109,3.8666,55.75183760,48.74354581,1.53999996,
18.864103,-1.6014,1.2679,-0.5371,55.75183760,48.74354581,1.53999996,
18.881997,-1.6014,1.2679,-0.5371,55.75183760,48.74354581,1.53999996,
18.902623,-1.6014,1.2679,-0.5371,55.75182527,48.74355392,1.53999996,
18.903820,-1.6014,1.2679,-0.5371,55.75182527,48.74355392,1.53999996,
18.922031,0.1389,0.0727,-3.7538,55.75182527,48.74355392,1.53999996,
18.923392,0.1389,0.0727,-3.7538,55.75182527,48.74355392,1.53999996,
18.941920,0.1389,0.0727,-3.7538,55.75182527,48.74355392,1.53999996,
18.959975,0.1389,0.0727,-3.7538,55.75182527,48.74355392,1.53999996,
18.979594,0.1389,0.0727,-3.7538,55.75182527,48.74355392,1.53999996,
18.980513,0.1389,0.0727,-3.7538,55.75182527,48.74355392,1.53999996,
19.001240,0.1389,0.0727,-3.7538,55.75182527,48.74355392,1.53999996,
19.002464,0.4214,-0.3548,-5.4771,55.75182527,48.74355392,1.53999996,
19.021037,0.4214,-0.3548,-5.4771,55.75182527,48.74355392,1.53999996,
19.041022,0.4214,-0.3548,-5.4771,55.75182527,48.74355392,1.53999996,
19.042258,0.4214,-0.3548,-5.4771,55.75182527,48.74355392,1.53999996,
19.059301,0.4214,-0.3548,-5.4771,55.75182527,48.74355392,1.53999996,
19.060594,0.3739,0.2692,-1.4657,55.75182527,48.74355392,1.53999996,
19.079416,0.3739,0.2692,-1.4657,55.75182527,48.74355392,1.53999996,
19.089027,0.3739,0.2692,-1.4657,55.75182527,48.74355392,1.53999996,
19.109315,0.3739,0.2692,-1.4657,55.75182527,48.74355392,1.53999996,
19.110801,0.3739,0.2692,-1.4657,55.75182527,48.74355392,1.53999996,
19.129513,0.3739,0.2692,-1.4657,55.75182527,48.74355392,1.53999996,
19.130830,-0.7623,1.0486,4.4717,55.75182527,48.74355392,1.53999996,
19.148326,-0.7623,1.0486,4.4717,55.75182527,48.74355392,1.53999996,
19.168095,-0.7623,1.0486,4.4717,55.75182527,48.74355392,1.53999996,
19.187887,-0.7623,1.0486,4.4717,55.75182527,48.74355392,1.53999996,
19.190428,-0.7623,1.0486,4.4717,55.75182527,48.74355392,1.53999996,
19.207054,0.7881,0.6716,3.7353,55.75182527,48.74355392,1.53999996,
19.208047,0.7881,0.6716,3.7353,55.75182527,48.74355392,1.53999996,
19.228643,0.7881,0.6716,3.7353,55.75182527,48.74355392,1.53999996,
19.246884,0.7881,0.6716,3.7353,55.75182527,48.74355392,1.53999996,
19.247701,0.7881,0.6716,3.7353,55.75182527,48.74355392,1.53999996,
19.268093,1.4018,-0.8081,1.6175,55.75182527,48.74355392,1.53999996,
19.269356,1.4018,-0.8081,1.6175,55.75182527,48.74355392,1.53999996,
19.286774,1.4018,-0.8081,1.6175,55.75182527,48.74355392,1.53999996,
19.307641,1.4018,-0.8081,1.6175,55.75182527,48.74355392,1.53999996,
19.326448,1.4018,-0.8081,1.6175,55.75182527,48.74355392,1.53999996,
19.327577,1.4018,-0.8081,1.6175,55.75182527,48.74355392,1.53999996,
19.346117,1.4018,-0.8081,1.6175,55.75182527,48.74355392,1.53999996,
19.347450,1.1816,-0.7002,-0.6758,55.75182527,48.74355392,1.53999996,
19.365440,1.1816,-0.7002,-0.6758,55.75182527,48.74355392,1.53999996,
19.384680,1.1816,-0.7002,-0.6758,55.75182527,48.74355392,1.53999996,
19.385951,1.1816,-0.7002,-0.6758,55.75182527,48.74355392,1.53999996,
19.406075,1.1816,-0.7002,-0.6758,55.75182527,48.74355392,1.53999996,
19.407803,-0.0937,-0.9492,-0.8714,55.75182527,48.74355392,1.53999996,
19.423891,-0.0937,-0.9492,-0.8714,55.75182527,48.74355392,1.53999996,
19.444653,-0.0937,-0.9492,-0.8714,55.75182527,48.74355392,1.53999996,
19.463574,-0.0937,-0.9492,-0.8714,55.75182527,48.74355392,1.53999996,
19.464737,-0.0937,-0.9492,-0.8714,55.75182527,48.74355392,1.53999996,
19.483959,-0.0937,-0.9492,-0.8714,55.75182527,48.74355392,1.53999996,
19.485471,0.1974,-0.7274,-3.0996,55.75182527,48.74355392,1.53999996,
19.504685,0.1974,-0.7274,-3.0996,55.75182527,48.74355392,1.53999996,
19.523877,0.1974,-0.7274,-3.0996,55.75182527,48.74355392,1.53999996,
19.525659,0.1974,-0.7274,-3.0996,55.75182527,48.74355392,1.53999996,
19.543565,0.1974,-0.7274,-3.0996,55.75182527,48.74355392,1.53999996,
19.544192,0.5368,-0.0708,-2.8880,55.75182527,48.74355392,1.53999996,
19.563062,0.5368,-0.0708,-2.8880,55.75182527,48.74355392,1.53999996,
19.593299,0.5368,-0.0708,-2.8880,55.75182527,48.74355392,1.53999996,
19.594886,0.5368,-0.0708,-2.8880,55.75182527,48.74355392,1.53999996,
19.611625,0.5368,-0.0708,-2.8880,55.75182527,48.74355392,1.53999996,
19.612500,-1.2567,1.4900,-0.6357,55.75182527,48.74355392,1.53999996,
19.632190,-1.2567,1.4900,-0.6357,55.75182527,48.74355392,1.53999996,
19.652121,-1.2567,1.4900,-0.6357,55.75182527,48.74355392,1.53999996,
19.672196,-1.2567,1.4900,-0.6357,55.75182527,48.74355392,1.53999996,
19.675615,-1.2567,1.4900,-0.6357,55.75182527,48.74355392,1.53999996,
19.692768,-1.2567,1.4900,-0.6357,55.75182527,48.74355392,1.53999996,
19.693523,-0.5712,0.2134,2.7629,55.75182527,48.74355392,1.53999996,
19.711161,-0.5712,0.2134,2.7629,55.75182527,48.74355392,1.53999996,
19.730909,-0.5712,0.2134,2.7629,55.75182527,48.74355392,1.53999996,
19.732118,-0.5712,0.2134,2.7629,55.75182527,48.74355392,1.53999996,
19.751533,-0.5712,0.2134,2.7629,55.75182527,48.74355392,1.53999996,
19.752206,-0.1471,0.4204,1.8865,55.75182527,48.74355392,1.53999996,
19.771011,-0.1471,0.4204,1.8865,55.75182527,48.74355392,1.53999996,
19.790950,-0.1471,0.4204,1.8865,55.75182527,48.74355392,1.53999996,
19.809052,-0.1471,0.4204,1.8865,55.75182527,48.74355392,1.53999996,
19.810202,-0.1471,0.4204,1.8865,55.75182527,48.74355392,1.53999996,
19.833122,-0.1471,0.4204,1.8865,55.75182527,48.74355392,1.53999996,
19.834579,0.1084,-1.4523,3.7332,55.75182527,48.74355392,1.53999996,
19.839098,0.1084,-1.4523,3.7332,55.75182527,48.74355392,1.53999996,
19.858644,0.1084,-1.4523,3.7332,55.75182527,48.74355392,1.53999996,
19.878945,0.1084,-1.4523,3.7332,55.75181222,48.74356359,1.60000002,
19.880097,0.1084,-1.4523,3.7332,55.75181222,48.74356359,1.60000002,
19.898474,0.1084,-1.4523,3.7332,55.75181222,48.74356359,1.60000002,
19.899584,-1.5598,0.4763,-1.1520,55.75181222,48.74356359,1.60000002,
19.918470,-1.5598,0.4763,-1.1520,55.75181222,48.74356359,1.60000002,
19.937721,-1.5598,0.4763,-1.1520,55.75181222,48.74356359,1.60000002,
19.938824,-1.5598,0.4763,-1.1520,55.75181222,48.74356359,1.60000002,
19.958203,0.1937,-0.4140,-3.0942,55.75181222,48.74356359,1.60000002,
19.960596,0.1937,-0.4140,-3.0942,55.75181222,48.74356359,1.60000002,
19.977949,0.1937,-0.4140,-3.0942,55.75181222,48.74356359,1.60000002,
19.996617,0.1937,-0.4140,-3.0942,55.75181222,48.74356359,1.60000002,
20.016906,0.1937,-0.4140,-3.0942,55.75181222,48.74356359,1.60000002,
20.017992,0.1937,-0.4140,-3.0942,55.75181222,48.74356359,1.60000002,
20.036573,0.1937,-0.4140,-3.0942,55.75181222,48.74356359,1.60000002,
20.037928,0.5358,-0.0240,-3.3438,55.75181222,48.74356359,1.60000002,
20.057140,0.5358,-0.0240,-3.3438,55.75181222,48.74356359,1.60000002,
20.077524,0.5358,-0.0240,-3.3438,55.75181222,48.74356359,1.60000002,
20.079626,0.5358,-0.0240,-3.3438,55.75181222,48.74356359,1.60000002,
20.095812,0.5358,-0.0240,-3.3438,55.75181222,48.74356359,1.60000002,
20.096413,-0.1676,1.5281,-1.8074,55.75181222,48.74356359,1.60000002,
20.116389,-0.1676,1.5281,-1.8074,55.75181222,48.74356359,1.60000002,
20.135946,-0.1676,1.5281,-1.8074,55.75181222,48.74356359,1.60000002,
20.154636,-0.1676,1.5281,-1.8074,55.75181222,48.74356359,1.60000002,
20.156174,-0.1676,1.5281,-1.8074,55.75181222,48.74356359,1.60000002,
20.175200,-0.1676,1.5281,-1.8074,55.75181222,48.74356359,1.60000002,
20.176089,0.5837,0.1915,2.9986,55.75181222,48.74356359,1.60000002,
20.194312,0.5837,0.1915,2.9986,55.75181222,48.74356359,1.60000002,
20.214484,0.5837,0.1915,2.9986,55.75181222,48.74356359,1.60000002,
20.216034,0.5837,0.1915,2.9986,55.75181222,48.74356359,1.60000002,
20.233851,0.9410,0.6753,4.3222,55.75181222,48.74356359,1.60000002,
20.235242,0.9410,0.6753,4.3222,55.75181222,48.74356359,1.60000002,
20.253990,0.9410,0.6753,4.3222,55.75181222,48.74356359,1.60000002,
20.273931,0.9410,0.6753,4.3222,55.75181222,48.74356359,1.60000002,
20.294730,0.9410,0.6753,4.3222,55.75181222,48.74356359,1.60000002,
20.296819,0.9410,0.6753,4.3222,55.75181222,48.74356359,1.60000002,
20.313910,0.9410,0.6753,4.3222,55.75181222,48.74356359,1.60000002,
20.314741,0.7320,-0.6147,3.5082,55.75181222,48.74356359,1.60000002,
20.343739,0.7320,-0.6147,3.5082,55.75181222,48.74356359,1.60000002,
20.362428,0.7320,-0.6147,3.5082,55.75181222,48.74356359,1.60000002,
20.363426,0.7320,-0.6147,3.5082,55.75181222,48.74356359,1.60000002,
20.382700,0.7320,-0.6147,3.5082,55.75181222,48.74356359,1.60000002,
20.383488,0.6841,-1.1572,0.3527,55.75181222,48.74356359,1.60000002,
20.402930,0.6841,-1.1572,0.3527,55.75181222,48.74356359,1.60000002,
20.422094,0.6841,-1.1572,0.3527,55.75181222,48.74356359,1.60000002,
20.423023,0.6841,-1.1572,0.3527,55.75181222,48.74356359,1.60000002,
20.441533,0.6841,-1.1572,0.3527,55.75181222,48.74356359,1.60000002,
20.442696,-0.9511,0.1079,-3.7274,55.75181222,48.74356359,1.60000002,
20.462042,-0.9511,0.1079,-3.7274,55.75181222,48.74356359,1.60000002,
20.481312,-0.9511,0.1079,-3.7274,55.75181222,48.74356359,1.60000002,
20.500997,-0.9511,0.1079,-3.7274,55.75181222,48.74356359,1.60000002,
20.502976,-0.9511,0.1079,-3.7274,55.75181222,48.74356359,1.60000002,
20.520199,-0.9511,0.1079,-3.7274,55.75181222,48.74356359,1.60000002,
20.520659,-0.8583,-0.4044,-4.6290,55.75181222,48.74356359,1.60000002,
20.539857,-0.8583,-0.4044,-4.6290,55.75181222,48.74356359,1.60000002,
20.560862,-0.8583,-0.4044,-4.6290,55.75181222,48.74356359,1.60000002,
20.561981,-0.8583,-0.4044,-4.6290,55.75181222,48.74356359,1.60000002,
20.579255,-0.8583,-0.4044,-4.6290,55.75181222,48.74356359,1.60000002,
20.590039,-0.8583,-0.4044,-4.6290,55.75181222,48.74356359,1.60000002,
20.591179,0.2718,-1.1827,-1.1993,55.75181222,48.74356359,1.60000002,
20.610075,0.2718,-1.1827,-1.1993,55.75181222,48.74356359,1.60000002,
20.630301,0.2718,-1.1827,-1.1993,55.75181222,48.74356359,1.60000002,
20.631210,0.2718,-1.1827,-1.1993,55.75181222,48.74356359,1.60000002,
20.650232,0.2718,-1.1827,-1.1993,55.75181222,48.74356359,1.60000002,
20.651303,0.0289,-0.0441,-0.3441,55.75181222,48.74356359,1.60000002,
20.668440,0.0289,-0.0441,-0.3441,55.75181222,48.74356359,1.60000002,
20.688246,0.0289,-0.0441,-0.3441,55.75181222,48.74356359,1.60000002,
20.708376,0.0289,-0.0441,-0.3441,55.75181222,48.74356359,1.60000002,
20.709968,0.0289,-0.0441,-0.3441,55.75181222,48.74356359,1.60000002,
20.729049,0.0289,-0.0441,-0.3441,55.75181222,48.74356359,1.60000002,
20.730411,0.4064,0.1019,2.9318,55.75181222,48.74356359,1.60000002,
20.746986,0.4064,0.1019,2.9318,55.75181222,48.74356359,1.60000002,
20.768759,0.4064,0.1019,2.9318,55.75181222,48.74356359,1.60000002,
20.769940,0.4064,0.1019,2.9318,55.75181222,48.74356359,1.60000002,
20.787000,0.4064,0.1019,2.9318,55.75181222,48.74356359,1.60000002,
20.788349,-0.7631,1.9639,2.2568,55.75181222,48.74356359,1.60000002,
20.806592,-0.7631,1.9639,2.2568,55.75181222,48.74356359,1.60000002,
20.828225,-0.7631,1.9639,2.2568,55.75181222,48.74356359,1.60000002,
20.846940,-0.7631,1.9639,2.2568,55.75181222,48.74356359,1.60000002,
20.847794,-0.7631,1.9639,2.2568,55.75181222,48.74356359,1.60000002,
20.866532,-0.7631,1.9639,2.2568,55.75181222,48.74356359,1.60000002,
20.868202,0.2961,-1.4902,4.0114,55.75179900,48.74357338,1.57000005,
20.885805,0.2961,-1.4902,4.0114,55.75179900,48.74357338,1.57000005,
20.905146,0.2961,-1.4902,4.0114,55.75179900,48.74357338,1.57000005,
20.906225,0.2961,-1.4902,4.0114,55.75179900,48.74357338,1.57000005,
20.926122,0.2961,-1.4902,4.0114,55.75179900,48.74357338,1.57000005,
20.927853,-2.2785,0.6647,-0.6124,55.75179900,48.74357338,1.57000005,
20.945520,-2.2785,0.6647,-0.6124,55.75179900,48.74357338,1.57000005,
20.965044,-2.2785,0.6647,-0.6124,55.75179900,48.74357338,1.57000005,
20.985107,-2.2785,0.6647,-0.6124,55.75179900,48.74357338,1.57000005,
20.986504,-2.2785,0.6647,-0.6124,55.75179900,48.74357338,1.57000005,
21.003848,-2.2785,0.6647,-0.6124,55.75179900,48.74357338,1.57000005,
21.004835,-0.4523,0.4228,-4.3872,55.75179900,48.74357338,1.57000005,
21.024737,-0.4523,0.4228,-4.3872,55.75179900,48.74357338,1.57000005,
21.045177,-0.4523,0.4228,-4.3872,55.75179900,48.74357338,1.57000005,
21.046298,-0.4523,0.4228,-4.3872,55.75179900,48.74357338,1.57000005,
21.064807,-0.4523,0.4228,-4.3872,55.75179900,48.74357338,1.57000005,
21.066528,0.6203,-0.7274,-5.0155,55.75179900,48.74357338,1.57000005,
21.093113,0.6203,-0.7274,-5.0155,55.75179900,48.74357338,1.57000005,
21.114102,0.6203,-0.7274,-5.0155,55.75179900,48.74357338,1.57000005,
21.114842,0.6203,-0.7274,-5.0155,55.75179900,48.74357338,1.57000005,
21.133197,0.6203,-0.7274,-5.0155,55.75179900,48.74357338,1.57000005,
21.134330,0.5954,-0.3558,-0.8239,55.75179900,48.74357338,1.57000005,
21.152316,0.5954,-0.3558,-0.8239,55.75179900,48.74357338,1.57000005,
21.172016,0.5954,-0.3558,-0.8239,55.75179900,48.74357338,1.57000005,
21.191433,0.5954,-0.3558,-0.8239,55.75179900,48.74357338,1.57000005,
21.192356,0.5954,-0.3558,-0.8239,55.75179900,48.74357338,1.57000005,
21.211744,0.1916,1.0510,2.7110,55.75179900,48.74357338,1.57000005,
21.213366,0.1916,1.0510,2.7110,55.75179900,48.74357338,1.57000005,
21.233136,0.1916,1.0510,2.7110,55.75179900,48.74357338,1.57000005,
21.251223,0.1916,1.0510,2.7110,55.75179900,48.74357338,1.57000005,
21.252380,0.1916,1.0510,2.7110,55.75179900,48.74357338,1.57000005,
21.270858,0.1916,1.0510,2.7110,55.75179900,48.74357338,1.57000005,
21.271666,0.5345,2.3545,3.2961,55.75179900,48.74357338,1.57000005,
21.290960,0.5345,2.3545,3.2961,55.75179900,48.74357338,1.57000005,
21.310836,0.5345,2.3545,3.2961,55.75179900,48.74357338,1.57000005,
21.328104,0.5345,2.3545,3.2961,55.75179900,48.74357338,1.57000005,
21.329138,0.5345,2.3545,3.2961,55.75179900,48.74357338,1.57000005,
21.339261,0.5345,2.3545,3.2961,55.75179900,48.74357338,1.57000005,
21.339990,1.2363,-0.2079,4.5915,55.75179900,48.74357338,1.57000005,
21.359516,1.2363,-0.2079,4.5915,55.75179900,48.74357338,1.57000005,
21.379727,1.2363,-0.2079,4.5915,55.75179900,48.74357338,1.57000005,
21.400234,1.2363,-0.2079,4.5915,55.75179900,48.74357338,1.57000005,
21.401815,1.2363,-0.2079,4.5915,55.75179900,48.74357338,1.57000005,
21.422253,1.2363,-0.2079,4.5915,55.75179900,48.74357338,1.57000005,
21.423379,1.4414,-1.3144,0.4608,55.75179900,48.74357338,1.57000005,
21.440091,1.4414,-1.3144,0.4608,55.75179900,48.74357338,1.57000005,
21.458966,1.4414,-1.3144,0.4608,55.75179900,48.74357338,1.57000005,
21.459744,1.4414,-1.3144,0.4608,55.75179900,48.74357338,1.57000005,
21.478700,-0.4389,-1.0148,-2.4599,55.75179900,48.74357338,1.57000005,
21.479556,-0.4389,-1.0148,-2.4599,55.75179900,48.74357338,1.57000005,
21.499154,-0.4389,-1.0148,-2.4599,55.75179900,48.74357338,1.57000005,
21.518869,-0.4389,-1.0148,-2.4599,55.75179900,48.74357338,1.57000005,
21.538478,-0.4389,-1.0148,-2.4599,55.75179900,48.74357338,1.57000005,
21.539354,-0.4389,-1.0148,-2.4599,55.75179900,48.74357338,1.57000005,
21.557255,-0.4389,-1.0148,-2.4599,55.75179900,48.74357338,1.57000005,
21.559354,-0.9006,-0.4340,-5.2575,55.75179900,48.74357338,1.57000005,
21.579906,-0.9006,-0.4340,-5.2575,55.75179900,48.74357338,1.57000005,
21.596714,-0.9006,-0.4340,-5.2575,55.75179900,48.74357338,1.57000005,
21.598079,-0.9006,-0.4340,-5.2575,55.75179900,48.74357338,1.57000005,
21.618648,0.5020,-0.4176,-4.6105,55.75179900,48.74357338,1.57000005,
21.619912,0.5020,-0.4176,-4.6105,55.75179900,48.74357338,1.57000005,
21.636657,0.5020,-0.4176,-4.6105,55.75179900,48.74357338,1.57000005,
21.655966,0.5020,-0.4176,-4.6105,55.75179900,48.74357338,1.57000005,
21.675629,0.5020,-0.4176,-4.6105,55.75179900,48.74357338,1.57000005,
21.676790,0.5020,-0.4176,-4.6105,55.75179900,48.74357338,1.57000005,
21.695247,0.5020,-0.4176,-4.6105,55.75179900,48.74357338,1.57000005,
21.696407,0.7081,0.1498,0.6795,55.75179900,48.74357338,1.57000005,
21.716699,0.7081,0.1498,0.6795,55.75179900,48.74357338,1.57000005,
21.734873,0.7081,0.1498,0.6795,55.75179900,48.74357338,1.57000005,
21.735539,0.7081,0.1498,0.6795,55.75179900,48.74357338,1.57000005,
21.758051,0.0218,0.5238,4.4105,55.75179900,48.74357338,1.57000005,
21.760018,0.0218,0.5238,4.4105,55.75179900,48.74357338,1.57000005,
21.774517,0.0218,0.5238,4.4105,55.75179900,48.74357338,1.57000005,
21.795032,0.0218,0.5238,4.4105,55.75179900,48.74357338,1.57000005,
21.815670,0.0218,0.5238,4.4105,55.75179900,48.74357338,1.57000005,
21.816568,0.0218,0.5238,4.4105,55.75179900,48.74357338,1.57000005,
21.830281,-0.0718,1.8045,2.4703,55.75179900,48.74357338,1.57000005,
21.843094,-0.0718,1.8045,2.4703,55.75179900,48.74357338,1.57000005,
21.864386,-0.0718,1.8045,2.4703,55.75179900,48.74357338,1.57000005,
21.884219,-0.0718,1.8045,2.4703,55.75179900,48.74357338,1.57000005,
21.884967,-0.0718,1.8045,2.4703,55.75178653,48.74358252,1.54999995,
21.903666,-0.0718,1.8045,2.4703,55.75178653,48.74358252,1.54999995,
21.905403,-0.0461,-1.9718,6.2072,55.75178653,48.74358252,1.54999995,
21.922526,-0.0461,-1.9718,6.2072,55.75178653,48.74358252,1.54999995,
21.942897,-0.0461,-1.9718,6.2072,55.75178653,48.74358252,1.54999995,
21.944718,-0.0461,-1.9718,6.2072,55.75178653,48.74358252,1.54999995,
21.962882,-1.8813,0.1179,-1.3715,55.75178653,48.74358252,1.54999995,
21.963980,-1.8813,0.1179,-1.3715,55.75178653,48.74358252,1.54999995,
21.982854,-1.8813,0.1179,-1.3715,55.75178653,48.74358252,1.54999995,
22.002272,-1.8813,0.1179,-1.3715,55.75178653,48.74358252,1.54999995,
22.021153,-1.8813,0.1179,-1.3715,55.75178653,48.74358252,1.54999995,
22.023051,-1.8813,0.1179,-1.3715,55.75178653,48.74358252,1.54999995,
22.042086,-1.8813,0.1179,-1.3715,55.75178653,48.74358252,1.54999995,
22.042968,-0.8925,-0.1193,-4.3675,55.75178653,48.74358252,1.54999995,
22.062388,-0.8925,-0.1193,-4.3675,55.75178653,48.74358252,1.54999995,
22.079827,-0.8925,-0.1193,-4.3675,55.75178653,48.74358252,1.54999995,
22.091457,-0.8925,-0.1193,-4.3675,55.75178653,48.74358252,1.54999995,
22.092100,-0.8925,-0.1193,-4.3675,55.75178653,48.74358252,1.54999995,
22.110408,-0.3582,-0.3280,-5.8792,55.75178653,48.74358252,1.54999995,
22.112148,-0.3582,-0.3280,-5.8792,55.75178653,48.74358252,1.54999995,
22.129888,-0.3582,-0.3280,-5.8792,55.75178653,48.74358252,1.54999995,
22.150887,-0.3582,-0.3280,-5.8792,55.75178653,48.74358252,1.54999995,
22.152795,-0.3582,-0.3280,-5.8792,55.75178653,48.74358252,1.54999995,
22.170725,-0.9259,0.2584,-0.5726,55.75178653,48.74358252,1.54999995,
22.172697,-0.9259,0.2584,-0.5726,55.75178653,48.74358252,1.54999995,
22.189901,-0.9259,0.2584,-0.5726,55.75178653,48.74358252,1.54999995,
